acc_x,acc_y,acc_z,gyro_x,gyro_y,gyro_z,direction
-0.081191,0.562481,0.784094,0.035525,-0.022997,-0.003947,left
-0.081679,0.577731,0.786595,0.041274,-0.030548,-0.002231,left
-0.08357,0.560407,0.789584,0.014416,-0.01802,-0.005663,left
-0.082228,0.564494,0.787571,0.029947,-0.025828,-0.003604,left
-0.082899,0.56364,0.788059,0.024884,-0.001802,-0.006436,left
-0.082777,0.562542,0.788669,0.032264,-0.02394,-0.000858,left
-0.083143,0.561078,0.789706,0.022739,-0.021709,-0.004719,left
-0.086681,0.560041,0.791597,0.01433,-0.011842,-0.004891,left
-0.084485,0.56303,0.788913,0.025657,-0.023426,-0.005234,left
-0.083143,0.56303,0.788913,0.022911,-0.020851,-0.003175,left
-0.076738,0.562908,0.787022,0.025485,-0.021967,-0.004977,left
-0.074908,0.563274,0.786717,0.027287,-0.025914,-0.004119,left
-0.076311,0.563152,0.787266,0.025914,-0.024026,-0.003089,left
-0.076677,0.563762,0.786839,0.02969,-0.02497,-0.004033,left
-0.076555,0.563213,0.787937,0.022568,-0.000601,-0.006521,left
-0.077409,0.56303,0.788547,0.019736,-0.018277,-0.005749,left
-0.07686,0.563213,0.788303,0.020937,-0.024284,-0.006264,left
-0.076006,0.563274,0.788059,0.025571,-0.02763,-0.005148,left
-0.076067,0.563762,0.787876,0.029003,-0.027373,-0.008924,left
-0.076128,0.564982,0.786961,0.027201,-0.02334,-0.00635,left
-0.084668,0.352031,0.906338,0.009954,-0.027973,-0.013214,left
-0.085522,0.354288,0.904935,0.022911,-0.017848,-0.010383,left
-0.082594,0.353556,0.904569,0.025571,-0.04033,-0.004891,left
-0.08723,0.356789,0.921283,0.029604,-0.023254,-0.003861,left
-0.085278,0.355752,0.905118,0.023426,-0.007122,-0.008323,left
-0.084241,0.356789,0.904691,0.025828,-0.014244,-0.004033,left
-0.082716,0.35685,0.904569,0.022825,-0.021709,-0.006178,left
-0.082167,0.359046,0.904325,0.030977,-0.017762,-0.004634,left
-0.079605,0.354227,0.904874,0.025313,-0.024713,-0.005921,left
-0.081679,0.355752,0.890356,0.034495,-0.011927,-0.015875,left
-0.097539,0.341356,0.910059,0.017247,-0.024026,0,left
-0.095221,0.340563,0.910791,0.020165,-0.000429,0.000772,left
-0.097051,0.342149,0.911096,0.020337,-0.000343,-0.004462,left
-0.098088,0.343918,0.911096,0.031921,-0.021452,-0.003861,left
-0.096807,0.343064,0.910425,0.02703,-0.020766,0.021023,left
-0.094123,0.341539,0.909937,0.035525,-0.029346,0.000429,left
-0.097661,0.341173,0.91073,0.029003,-0.026,0.02128,left
-0.098332,0.338855,0.911157,0.049511,-0.046594,-0.002746,left
-0.101443,0.335683,0.913048,0.035954,-0.023082,-0.002145,left
-0.103822,0.333975,0.913292,0.036211,-0.022653,0.000343,left
-0.109983,0.282491,0.931043,0.011327,-0.028317,-0.008838,left
-0.113155,0.285419,0.931043,0.014673,-0.019221,-0.010898,left
-0.111386,0.286944,0.930006,0.025142,-0.023855,-0.006436,left
-0.109739,0.287737,0.929213,0.023683,-0.022911,-0.004805,left
-0.111996,0.28731,0.930616,0.017419,-0.016132,-0.005148,left
-0.111203,0.288408,0.930372,0.020937,-0.019049,-0.008409,left
-0.110166,0.289445,0.930067,0.026257,-0.020851,-0.008667,left
-0.111081,0.289628,0.930677,0.027716,-0.019221,-0.003347,left
-0.110837,0.289567,0.93086,0.023426,-0.014073,-0.004891,left
-0.10919,0.289323,0.929884,0.013901,-0.008066,-0.007208,left
0.131821,0.413702,0.864309,0.020851,-0.055775,0.002059,left
0.123708,0.416752,0.865956,0.030977,-0.041789,-0.021709,left
0.122549,0.415105,0.867237,0.032693,-0.037841,-0.005663,left
0.12078,0.412665,0.867664,0.03235,-0.039043,-0.003861,left
0.118401,0.412665,0.868091,0.020851,-0.034409,-0.002746,left
0.116693,0.411811,0.868335,0.025142,-0.027459,-0.004891,left
0.116022,0.412543,0.867298,0.037412,-0.031234,-0.002746,left
0.116022,0.412238,0.868091,0.029947,-0.027373,-0.005234,left
0.114741,0.411567,0.869555,0.000515,-0.018706,-0.004891,left
0.116388,0.412665,0.867542,0.014931,-0.029775,0.003604,left
0.136579,0.432185,0.859185,0.011584,0.036983,-0.0127,left
0.148474,0.436943,0.857172,0.024284,0.086666,-0.023082,left
0.175131,0.435906,0.843691,0.013644,-0.019221,-0.009439,left
0.175802,0.438529,0.845704,0.034152,-0.057491,-0.021881,left
0.187331,0.439383,0.848327,0.033465,-0.045135,-0.002574,left
0.16775,0.439017,0.850157,0.028145,-0.028403,-0.003518,left
0.165127,0.439566,0.850096,0.02866,-0.027888,-0.003003,left
0.163968,0.43981,0.85034,0.03501,-0.034667,-0.004634,left
0.161467,0.439749,0.849913,0.032865,-0.029003,-0.004891,left
0.159942,0.438285,0.849791,0.025142,-0.027973,-0.006007,left
-0.028548,0.487268,0.843752,0.021366,-0.027888,-0.008581,left
-0.027389,0.487268,0.843386,0.008667,-0.017591,-0.01536,left
-0.023241,0.489952,0.840275,0.032779,-0.030634,-0.003861,left
-0.024278,0.486719,0.841129,0.027802,-0.036726,-0.007122,left
-0.034038,0.485621,0.843813,0.026429,-0.017848,0.004205,left
-0.032696,0.485011,0.842959,0.009954,-0.022825,-0.006178,left
-0.031476,0.486902,0.842898,0.016132,-0.026686,-0.006007,left
-0.032757,0.488122,0.841861,0.017162,-0.023511,-0.00369,left
-0.033733,0.490257,0.841129,0.027544,-0.028059,-0.003518,left
-0.033611,0.489952,0.840275,0.021709,-0.02969,-0.003947,left
-0.101931,0.603717,0.755424,0.021624,-0.026171,-0.009096,left
-0.103944,0.604266,0.757071,0.024455,-0.026171,-0.00738,left
-0.102846,0.605242,0.756583,0.031835,-0.043762,-0.002746,left
-0.102602,0.604815,0.756156,0.033723,-0.027287,-0.003003,left
-0.10309,0.605059,0.7564,0.031663,-0.025228,-0.002317,left
-0.102785,0.603717,0.757437,0.027716,-0.021538,-0.001716,left
-0.10187,0.604083,0.757254,0.023769,-0.02437,-0.004119,left
-0.103334,0.6039,0.757254,0.026,-0.023426,-0.001974,left
-0.102175,0.604205,0.756888,0.02969,-0.024713,-0.003175,left
-0.10187,0.6039,0.757254,0.028488,-0.030805,-0.00532,left
-0.099552,0.617869,0.747311,0.040673,-0.025571,-0.000257,left
-0.099064,0.617625,0.748775,0.033808,-0.001373,-0.000772,left
-0.104859,0.6161,0.751093,0.005921,0.005921,-0.016218,left
-0.094855,0.618601,0.747921,0.030634,-0.030634,-0.004805,left
-0.096075,0.618357,0.748104,0.027888,-0.029518,-0.001116,left
-0.097966,0.618052,0.748165,0.025914,-0.022482,-0.001373,left
-0.098149,0.617991,0.747433,0.02334,-0.026772,-0.005234,left
-0.097905,0.618662,0.746213,0.027459,-0.028059,-0.001373,left
-0.09821,0.619333,0.745664,0.040072,-0.022568,-0.002832,left
-0.097478,0.61976,0.74359,0.016818,-0.030634,-0.021795,left
-0.088572,0.687897,0.683566,0.031663,-0.029346,0.001545,left
-0.093208,0.692716,0.675209,0.076283,-0.059637,-0.010554,left
-0.084363,0.702232,0.685701,0.035525,-0.002231,0.009439,left
-0.09699,0.656177,0.698511,0.074482,-0.031492,0.011412,left
-0.100589,0.669841,0.699853,0.040501,-0.022396,-0.004462,left
-0.101321,0.668255,0.700768,0.01965,-0.027716,-0.001716,left
-0.101077,0.668072,0.69845,0.015875,-0.022825,0.000172,left
-0.101138,0.669963,0.697962,0.065128,-0.033465,0.007122,left
-0.104493,0.66795,0.700036,0.016475,-0.025142,-0.004805,left
-0.104127,0.671854,0.697108,-0.005406,-0.01862,-0.005406,left
-0.103334,0.590297,0.76616,0.019221,-0.02128,-0.003432,left
-0.103578,0.591212,0.765489,0.018535,-0.020165,-0.004205,left
-0.102724,0.591395,0.749568,0.002231,-0.015789,-0.005148,left
-0.101931,0.593774,0.76372,0.026686,-0.023855,-0.004462,left
-0.10248,0.59475,0.763171,0.030376,-0.029175,-0.002403,left
-0.10309,0.593957,0.763781,0.019822,-0.024541,-0.005234,left
-0.101504,0.594445,0.763476,0.033465,-0.031749,-0.002403,left
-0.102053,0.577853,0.764757,0.022739,-0.027802,-0.004548,left
-0.102602,0.595299,0.763659,0.024284,-0.024884,-0.004376,left
-0.10248,0.594018,0.764147,0.000429,-0.022568,-0.003347,left
-0.124562,0.509594,0.822646,0.017162,-0.026343,-0.002403,left
-0.124074,0.511485,0.821792,0.015274,-0.021709,-0.004719,left
-0.122488,0.513986,0.820206,0.025914,-0.027373,-0.00369,left
-0.123464,0.514535,0.819596,0.027544,-0.027287,-0.002059,left
-0.124074,0.514718,0.819169,0.019049,-0.024198,-0.004548,left
-0.12322,0.515572,0.818132,0.014759,-0.030204,-0.00429,left
-0.123891,0.517829,0.817888,0.023426,-0.024541,-0.003432,left
-0.122915,0.518439,0.816241,0.025742,-0.028746,-0.001802,left
-0.123403,0.519476,0.816668,0.027115,-0.022139,-0.001974,left
-0.123281,0.519537,0.816668,0.026515,-0.023168,-0.003175,left
-0.122915,0.435296,0.865285,0.022911,-0.022997,-0.002574,left
-0.12261,0.437248,0.864492,0.024884,-0.023855,-0.005921,left
-0.122305,0.437858,0.863577,0.025485,-0.022396,-0.006264,left
-0.122366,0.43859,0.862601,0.024455,-0.027373,-0.005148,left
-0.121817,0.438163,0.862601,0.022997,-0.043505,-0.005148,left
-0.121756,0.438956,0.862906,0.027716,-0.01536,-0.003947,left
-0.121634,0.440237,0.862357,0.015789,-0.015875,-0.008924,left
-0.118035,0.440664,0.860344,0.018277,-0.023855,-0.003861,left
-0.120292,0.442311,0.860832,0.025056,-0.017848,-0.001116,left
-0.119682,0.44286,0.859734,0.02497,-0.024455,-0.004805,left
-0.117242,0.369111,0.896517,0.021624,-0.02128,-0.003947,left
-0.114741,0.367281,0.896822,0.018706,-0.024198,-0.007036,left
-0.11651,0.368806,0.897249,0.030977,-0.028746,-0.008752,left
-0.115351,0.36966,0.895602,0.026772,-0.025313,-0.003089,left
-0.116937,0.370087,0.895968,0.02866,-0.024455,-0.00369,left
-0.118157,0.371307,0.894565,0.021109,-0.028059,-0.019135,left
-0.117852,0.369843,0.897371,0.025485,-0.03029,-0.002488,left
-0.121085,0.370758,0.897676,0.019135,-0.018706,-0.007551,left
-0.117364,0.369172,0.89731,0.012271,-0.016904,-0.008066,left
-0.118157,0.374357,0.894504,0.020508,-0.017076,-0.004977,left
-0.111264,0.352519,0.903166,0.029261,-0.03029,-0.005148,left
-0.111752,0.349408,0.905179,0.02437,-0.023254,-0.002231,left
-0.11163,0.349042,0.905057,0.02068,-0.02231,-0.003518,left
-0.109922,0.352763,0.903227,0.021023,-0.030719,-0.007723,left
-0.11407,0.35319,0.903715,0.014244,-0.027287,-0.011842,left
-0.112423,0.352275,0.904081,0.025657,-0.022568,-0.003518,left
-0.111508,0.349957,0.906033,0.018106,-0.013729,-0.003947,left
-0.111691,0.356972,0.902129,0.013472,-0.021452,-0.007465,left
-0.111264,0.353617,0.903959,0.00901,-0.012871,-0.005492,left
-0.110837,0.359839,0.900665,0.01004,-0.026858,-0.015531,left
-0.110532,0.508069,0.820816,0.077571,-0.066501,-0.000686,left
-0.107726,0.498919,0.828075,0.035181,-0.030805,-0.002488,left
-0.106079,0.495015,0.831857,0.021709,-0.010211,-0.003861,left
-0.115595,0.502762,0.824964,-0.010383,-0.00738,-0.005063,left
-0.105652,0.507703,0.823012,0.021195,-0.025485,-0.005921,left
-0.108824,0.507886,0.823073,0.009611,-0.01965,-0.005663,left
-0.105713,0.507459,0.823561,0.024627,-0.019221,-0.003861,left
-0.106811,0.507459,0.823561,0.033551,-0.020508,-0.005749,left
-0.105103,0.508252,0.822951,0.037412,-0.030805,-0.006693,left
-0.108763,0.507215,0.823683,0.007637,-0.015102,-0.006865,left
-0.101138,0.518378,0.817644,0.025056,-0.043676,-0.005063,left
-0.101748,0.519049,0.816851,0.028488,-0.024455,-0.003518,left
-0.102419,0.518744,0.817034,0.027973,-0.025828,-0.004805,left
-0.103395,0.518805,0.817461,0.029432,-0.023511,-0.004462,left
-0.103029,0.518988,0.8174,0.028488,-0.02334,-0.004376,left
-0.103273,0.518256,0.817888,0.02703,-0.024541,-0.002231,left
-0.103334,0.518012,0.817461,0.020594,-0.001287,-0.004634,left
-0.103029,0.518622,0.817095,0.020079,-0.019736,-0.002231,left
-0.102602,0.519354,0.816302,0.023597,-0.021538,-0.004376,left
-0.102297,0.520452,0.815997,0.025142,-0.020766,-0.00369,left
-0.0976,0.525515,0.814655,0.004119,-0.026944,-0.002059,left
-0.099247,0.531859,0.810629,-0.008838,-0.022825,-0.012185,left
-0.097661,0.536129,0.807213,0.007465,-0.017676,-0.006521,left
-0.097356,0.540826,0.802577,-0.080402,-0.02068,-0.003347,left
-0.097112,0.556625,0.793488,0.021366,-0.000086,-0.003861,left
-0.097722,0.558089,0.791719,0.027287,-0.043676,-0.004548,left
-0.097051,0.557357,0.791963,0.031492,-0.042904,-0.003604,left
-0.0976,0.557296,0.792207,0.024799,-0.000944,-0.005406,left
-0.096624,0.557967,0.791719,0.029261,-0.024455,-0.006865,left
-0.096563,0.557845,0.791536,0.022911,-0.022739,-0.004205,left
-0.083997,0.569618,0.784521,0.046508,-0.038185,-0.003089,left
-0.093513,0.569008,0.784704,0.022911,-0.026343,-0.005921,left
-0.090585,0.568703,0.784704,0.02437,-0.02231,-0.004805,left
-0.090463,0.569374,0.784582,0.02497,-0.025485,-0.005921,left
-0.08967,0.568764,0.785375,0.024799,-0.025399,-0.004548,left
-0.091073,0.569435,0.784826,0.018449,-0.024541,-0.005492,left
-0.09089,0.570411,0.784582,0.014931,-0.020251,-0.005749,left
-0.090158,0.571692,0.783606,0.024713,-0.024198,-0.005663,left
-0.089426,0.571814,0.783484,0.030634,-0.026,-0.00429,left
-0.090951,0.571997,0.782935,0.022997,-0.025056,-0.00635,left
-0.095038,0.631289,0.735111,0.028488,-0.025485,-0.008495,left
-0.094184,0.630679,0.736148,0.031234,-0.024799,-0.00798,left
-0.094733,0.629398,0.737551,0.021795,-0.026772,-0.006521,left
-0.094855,0.62952,0.737002,0.023511,-0.026,-0.00738,left
-0.09455,0.630252,0.735965,0.026257,-0.043676,-0.005492,left
-0.095099,0.631167,0.735172,0.022053,-0.024541,-0.005749,left
-0.094001,0.631716,0.734928,0.025571,-0.022396,-0.006693,left
-0.093147,0.631838,0.735233,0.035439,-0.027544,-0.005063,left
-0.094672,0.630435,0.736941,0.028231,-0.02437,-0.00635,left
-0.093635,0.630008,0.737612,0.017505,-0.020251,-0.004462,left
-0.087596,0.613538,0.75152,0.025828,-0.023426,-0.002231,left
-0.086193,0.612135,0.752679,0.013901,-0.023769,-0.00738,left
-0.086742,0.613294,0.752008,0.024198,-0.02231,-0.005406,left
-0.087291,0.61427,0.751276,0.018191,-0.025313,-0.008323,left
-0.085461,0.61488,0.75091,0.022911,-0.01965,-0.003947,left
-0.085583,0.614636,0.751276,0.030719,-0.024026,-0.002145,left
-0.086132,0.614209,0.751581,0.024799,-0.021881,-0.003432,left
-0.087169,0.614331,0.751215,0.021195,-0.025485,-0.004891,left
-0.085888,0.615856,0.750422,0.02703,-0.026944,-0.003947,left
-0.086071,0.615307,0.750971,0.025742,-0.01965,-0.004977,left
-0.104005,0.433161,0.86803,0.023511,-0.025142,-0.00266,left
-0.102358,0.436028,0.86864,0.030376,-0.016304,0.002832,left
-0.106811,0.440847,0.86132,0.021366,-0.042475,-0.018964,left
-0.108702,0.430111,0.874801,0.013987,-0.003947,0.012614,left
-0.103822,0.440176,0.86376,0.040244,-0.04831,-0.00532,left
-0.111264,0.429196,0.868823,-0.014416,-0.019908,-0.012185,left
-0.105591,0.440176,0.865285,0.019736,-0.00695,-0.001545,left
-0.110288,0.446703,0.861442,0.011241,-0.019307,-0.009868,left
-0.107787,0.445361,0.862601,0.005234,-0.011327,-0.014931,left
-0.1037,0.449265,0.854732,0.064528,-0.070449,0.003776,left
-0.121268,0.338733,0.912377,0.029432,-0.017591,-0.005063,left
-0.121024,0.33672,0.910852,0.014845,-0.020251,-0.007208,left
-0.119926,0.338428,0.910791,0.00635,-0.01862,-0.006779,left
-0.11834,0.34343,0.90829,0.014673,-0.025228,-0.003861,left
-0.117913,0.345321,0.907497,0.018449,-0.027115,-0.006607,left
-0.116266,0.346419,0.906948,0.02068,-0.026343,-0.004891,left
-0.118767,0.348432,0.907192,0.02437,-0.02497,-0.007294,left
-0.11834,0.349774,0.907924,0.032006,-0.010383,-0.007723,left
-0.11712,0.347395,0.907009,0.015102,-0.043762,-0.005578,left
-0.117669,0.35014,0.906643,0.019736,-0.019135,-0.002059,left
-0.097844,0.515389,0.822524,0.027459,-0.026086,-0.001888,left
-0.098698,0.517341,0.821243,0.029518,-0.02128,-0.00369,left
-0.099064,0.516731,0.821121,0.029947,-0.027716,-0.003518,left
-0.099003,0.516121,0.820999,0.027373,-0.022653,-0.00429,left
-0.09821,0.516304,0.820633,0.02866,-0.025571,-0.003861,left
-0.10004,0.51606,0.820755,0.043333,-0.024884,-0.004548,left
-0.099613,0.516182,0.820938,0.002832,-0.023254,-0.004719,left
-0.099186,0.516304,0.820755,0.024198,-0.025228,-0.005578,left
-0.100467,0.516304,0.820877,0.034495,-0.027115,-0.001373,left
-0.099003,0.515572,0.820938,0.037069,-0.029432,-0.003604,left
-0.119621,0.607316,0.752496,0.02703,-0.019993,-0.003175,left
-0.12017,0.606584,0.752923,0.032006,-0.023855,0.001373,left
-0.121085,0.606157,0.75213,0.031406,-0.044105,0.008581,left
-0.126575,0.603534,0.757437,0.029175,-0.015274,0.010726,left
-0.12383,0.605364,0.753411,0.022653,-0.025056,-0.007637,left
-0.124745,0.60512,0.753716,0.018792,-0.021452,-0.009181,left
-0.124257,0.605669,0.753411,0.030119,-0.019908,-0.001459,left
-0.126941,0.602497,0.755546,0.004376,-0.005492,-0.010125,left
-0.121756,0.605608,0.753167,0.019221,-0.022653,-0.003261,left
-0.124318,0.608292,0.751398,0.020165,-0.032264,-0.01064,left
-0.119255,0.611952,0.747738,0.038185,-0.023168,0.00163,left
-0.120902,0.612074,0.747494,0.03029,-0.03029,-0.00635,left
-0.121695,0.612257,0.747433,0.034323,-0.01802,-0.003776,left
-0.120048,0.610183,0.748897,0.034752,-0.024026,-0.003089,left
-0.119377,0.608963,0.74969,0.033122,-0.019478,-0.003003,left
-0.120475,0.60878,0.749629,0.029346,-0.025571,-0.007294,left
-0.116388,0.60878,0.750178,0.04033,-0.026944,-0.000772,left
-0.122244,0.608841,0.749629,0.027716,-0.02866,-0.003604,left
-0.118035,0.60634,0.751459,0.024112,-0.023426,-0.002317,left
-0.119316,0.609634,0.749385,0.032264,-0.027287,-0.001716,left
-0.123342,0.389546,0.885354,0.008323,-0.02866,-0.007723,left
-0.120658,0.385886,0.888099,0.01536,-0.010898,-0.005835,left
-0.116815,0.391193,0.884622,0.014845,-0.025914,-0.007465,left
-0.114985,0.389302,0.884866,0.0133,-0.020337,-0.00738,left
-0.117547,0.394609,0.885903,0.012528,-0.012957,-0.008752,left
-0.110044,0.401136,0.880413,0.010297,-0.031577,-0.017419,left
-0.113338,0.398147,0.881389,-0.029518,-0.007723,-0.014073,left
-0.108336,0.411994,0.876082,0.004462,-0.015617,-0.00695,left
-0.106567,0.414068,0.876021,0.008495,-0.007465,-0.009782,left
-0.102663,0.41663,0.873337,0.003003,-0.015274,-0.013386,left
-0.1037,0.438041,0.86254,0.026601,-0.004205,-0.003261,left
-0.101992,0.438895,0.861991,0.019478,-0.01596,-0.006607,left
-0.101077,0.440298,0.861259,0.022997,-0.000686,-0.007208,left
-0.101748,0.43859,0.862296,0.023683,-0.020766,-0.00429,left
-0.099918,0.440298,0.861198,0.028145,-0.021366,-0.003518,left
-0.101199,0.441091,0.861747,0.019393,-0.014073,-0.00532,left
-0.095404,0.437736,0.861198,0.035696,-0.027115,0.021795,left
-0.097539,0.437858,0.862479,0.015789,-0.015016,-0.005749,left
-0.097905,0.437126,0.863211,0.018535,-0.019221,-0.00635,left
-0.095648,0.441091,0.862662,0.06161,-0.036383,0.003089,left
-0.120109,0.321287,0.910608,-0.017676,-0.011241,0.004719,left
-0.119072,0.331169,0.909937,0.004376,-0.022911,-0.006865,left
-0.118035,0.335683,0.909632,0.011498,-0.021709,-0.006436,left
-0.115473,0.339221,0.907741,0.020851,-0.027287,-0.008667,left
-0.115839,0.338855,0.907009,0.018449,-0.020594,-0.004548,left
-0.115778,0.341783,0.906338,0.000343,-0.028832,-0.00369,left
-0.117059,0.342027,0.906826,0.015102,-0.019478,-0.008495,left
-0.117608,0.345077,0.906094,0.016647,-0.018535,-0.005234,left
-0.116083,0.345138,0.90646,0.012785,-0.018191,-0.007637,left
-0.116022,0.347029,0.906277,0.015703,-0.019993,-0.006865,left
-0.11163,0.35685,0.901641,0.031663,-0.025571,-0.002145,left
-0.110654,0.357826,0.901519,0.025914,-0.025571,-0.004033,left
-0.112118,0.354471,0.904325,0.010125,-0.01536,-0.006865,left
-0.112423,0.355996,0.903166,0.017162,-0.023082,-0.006436,left
-0.112179,0.355752,0.902922,0.01862,-0.022224,-0.001888,left
-0.112118,0.3599,0.902251,0.031921,-0.027973,-0.000686,left
-0.110593,0.359473,0.902373,0.033294,-0.035868,-0.003947,left
-0.116449,0.358131,0.903349,0.02969,-0.00163,0.000944,left
-0.113155,0.359412,0.902373,0.03295,-0.025571,-0.003604,left
-0.114558,0.354593,0.904142,0.015102,-0.017848,-0.003261,left
-0.075274,0.562603,0.791048,0.035096,-0.026858,-0.002488,left
-0.076738,0.561627,0.79239,0.022911,-0.020251,-0.003432,left
-0.07564,0.561688,0.792024,0.034924,-0.02497,-0.003089,left
-0.076921,0.560407,0.792695,0.02969,-0.043848,-0.002231,left
-0.076738,0.561017,0.793183,0.023082,-0.02068,-0.004033,left
-0.075579,0.560834,0.793427,0.03029,-0.022997,-0.00369,left
-0.076311,0.559248,0.794281,0.020337,-0.01699,-0.003518,left
-0.075701,0.55998,0.793915,0.025914,-0.02334,-0.00429,left
-0.075091,0.55998,0.794342,0.024627,-0.022997,-0.004977,left
-0.075396,0.560712,0.793366,0.027544,-0.027716,-0.005835,left
-0.078995,0.554856,0.794586,0.031148,-0.026515,-0.004205,left
-0.07869,0.555283,0.794281,0.030891,-0.025657,-0.002231,left
-0.078324,0.555832,0.794281,0.032693,-0.022997,-0.00266,left
-0.079727,0.554063,0.795806,0.026772,-0.022482,-0.004119,left
-0.078873,0.55449,0.795623,0.032178,-0.026858,-0.005663,left
-0.078995,0.554124,0.795501,0.024198,-0.020337,-0.005063,left
-0.079971,0.55327,0.796233,0.028317,-0.023511,-0.004119,left
-0.079727,0.553026,0.796355,0.027544,-0.025828,-0.003518,left
-0.079056,0.55327,0.795989,0.028145,-0.025485,-0.005234,left
-0.080581,0.552294,0.796965,0.027373,-0.042732,-0.005921,left
-0.08723,0.531737,0.810568,0.02394,-0.00163,-0.004548,left
-0.086803,0.529541,0.811117,0.022568,-0.043762,-0.005749,left
-0.085949,0.532652,0.809836,0.031921,-0.029518,-0.005492,left
-0.087718,0.531981,0.810446,0.018706,-0.025657,-0.008066,left
-0.085766,0.534055,0.808921,0.026772,-0.043934,-0.003003,left
-0.082838,0.533445,0.809226,0.028059,-0.018706,-0.002317,left
-0.084851,0.530395,0.81069,0.043848,-0.017162,-0.005578,left
-0.084119,0.53375,0.80947,0.02969,-0.02437,-0.006865,left
-0.085339,0.533262,0.810263,0.03398,-0.02763,-0.004033,left
-0.084851,0.534055,0.809104,0.029432,-0.027459,-0.004805,left
-0.155306,0.28609,0.923296,0.011584,-0.001116,-0.005148,left
-0.155184,0.29036,0.922076,0.010898,-0.024284,-0.006779,left
-0.154086,0.290055,0.921466,0.01433,-0.019049,-0.00635,left
-0.152988,0.294386,0.919758,0.024541,-0.026429,-0.004548,left
-0.152073,0.29524,0.919087,0.02394,-0.027459,-0.005663,left
-0.152256,0.297375,0.919026,0.02068,-0.025828,-0.007208,left
-0.151768,0.298961,0.918294,0.019822,-0.024713,-0.006521,left
-0.153354,0.298473,0.919575,0.019049,-0.024627,-0.006007,left
-0.152805,0.300303,0.918599,0.02068,-0.026086,-0.005148,left
-0.152378,0.302255,0.917745,0.024799,-0.022224,-0.002832,left
-0.147437,0.314577,0.916342,0.020251,-0.043934,-0.005663,left
-0.146278,0.315309,0.916403,0.019736,-0.021023,-0.005921,left
-0.145424,0.316712,0.916708,0.031148,-0.026257,-0.001974,left
-0.145912,0.317261,0.916159,0.029175,-0.02394,-0.005663,left
-0.145546,0.31659,0.915427,0.024884,-0.021881,-0.00429,left
-0.145973,0.317749,0.915854,0.02394,-0.043419,-0.005921,left
-0.145851,0.31842,0.915,0.027459,-0.025142,-0.00369,left
-0.145973,0.318298,0.914878,0.02969,-0.026515,-0.001802,left
-0.145851,0.318969,0.914512,0.02334,-0.026515,-0.003261,left
-0.145241,0.318847,0.914512,0.02866,-0.026343,-0.003947,left
-0.069723,0.598349,0.762622,0.026086,-0.018449,-0.006436,left
-0.07259,0.599325,0.762256,0.020079,-0.021624,-0.007894,left
-0.069906,0.602985,0.759755,0.032264,-0.026944,-0.004977,left
-0.068991,0.602802,0.759999,0.02703,-0.023082,-0.005234,left
-0.069601,0.601887,0.760731,0.025657,-0.031063,-0.007036,left
-0.0732,0.599996,0.761585,0,-0.024455,-0.008924,left
-0.07259,0.599996,0.761219,0.028403,-0.043676,-0.006607,left
-0.07442,0.59841,0.762927,0.023082,-0.020251,-0.007036,left
-0.072651,0.599325,0.762073,0.022396,-0.020851,-0.005234,left
-0.073749,0.598898,0.762317,0.026429,-0.019908,-0.006693,left
-0.076494,0.592798,0.769454,0.022825,-0.018964,-0.00695,left
-0.075518,0.59292,0.769454,0.02497,-0.02128,-0.006178,left
-0.076067,0.593957,0.769149,0.030033,-0.025313,-0.003347,left
-0.076494,0.592615,0.769942,0.029518,-0.027802,-0.005148,left
-0.075213,0.592554,0.769698,0.029518,-0.02334,-0.005492,left
-0.075213,0.592737,0.76982,0.025142,-0.023426,-0.005921,left
-0.075396,0.591822,0.770064,0.031063,-0.024713,-0.005663,left
-0.075945,0.591883,0.770064,0.031663,-0.025313,-0.005749,left
-0.075457,0.592249,0.770308,0.022997,-0.025742,-0.006264,left
-0.075762,0.589809,0.771528,0.032264,-0.021023,-0.005063,left
-0.076067,0.590724,0.76921,0.029604,-0.02128,-0.003604,left
-0.076555,0.590724,0.768661,0.029947,-0.018535,-0.003947,left
-0.075884,0.592066,0.768356,0.030719,-0.022911,-0.002917,left
-0.074786,0.590419,0.76982,0.031749,-0.026343,-0.00429,left
-0.074298,0.590541,0.769881,0.026858,-0.026,-0.004977,left
-0.074115,0.590358,0.769576,0.026858,-0.027201,-0.00429,left
-0.07564,0.589504,0.769576,0.024884,-0.023254,-0.005406,left
-0.074298,0.590541,0.768173,0.028832,-0.026429,-0.004548,left
-0.075579,0.589077,0.769637,0.024627,-0.043505,-0.006521,left
-0.076494,0.591761,0.768173,0.030719,-0.023168,-0.005406,left
-0.085705,0.711016,0.66185,0.038099,-0.024284,-0.00103,left
-0.083509,0.708271,0.66429,0.040931,-0.018449,0.020594,left
-0.084912,0.706685,0.665937,0.02969,-0.015703,-0.003604,left
-0.084241,0.70516,0.667584,0.031749,-0.028917,-0.007036,left
-0.086498,0.704245,0.668621,0.013644,-0.02866,-0.009868,left
-0.083997,0.707478,0.665327,0.038013,-0.02497,-0.002488,left
-0.085095,0.70516,0.66734,0.032178,-0.021709,-0.002832,left
-0.084912,0.705404,0.667645,0.029775,-0.017934,-0.005063,left
-0.083997,0.70455,0.668865,0.025828,-0.033036,-0.013901,left
-0.082777,0.702598,0.670817,0.035439,-0.026772,-0.006521,left
-0.083448,0.701012,0.672098,0.001459,-0.019221,0.021538,left
-0.083143,0.701195,0.672098,0.015875,-0.001116,-0.004805,left
-0.083448,0.701439,0.671976,0.018878,-0.02437,-0.005148,left
-0.083875,0.702903,0.67039,0.019736,-0.021366,-0.007894,left
-0.084241,0.702598,0.670695,0.012356,-0.02334,-0.015016,left
-0.081191,0.705709,0.667584,0.001459,-0.020937,-0.02068,left
-0.077653,0.70943,0.663375,0.00429,-0.015102,-0.025571,left
-0.078324,0.711199,0.661606,-0.008752,-0.021195,-0.033637,left
-0.080886,0.711626,0.661728,0.093531,-0.02866,-0.065214,left
-0.064721,0.714981,0.659105,0.034495,-0.010898,-0.028917,left
-0.09516,0.524234,0.815997,0.019393,-0.01862,-0.005835,left
-0.091927,0.526491,0.814167,0.019307,-0.018878,-0.007294,left
-0.090585,0.527955,0.812886,0.021538,-0.019049,-0.004119,left
-0.090951,0.529785,0.813557,0.000257,-0.019135,-0.006607,left
-0.089609,0.530456,0.813069,0.019736,-0.022997,-0.003432,left
-0.089914,0.530944,0.812276,0.019908,-0.023769,-0.005492,left
-0.088694,0.532286,0.811056,0.025657,-0.025485,-0.003776,left
-0.087108,0.533567,0.811056,0.027716,-0.025313,-0.002917,left
-0.088206,0.533628,0.810385,0.026,-0.023426,-0.002917,left
-0.08845,0.533384,0.810446,0.027373,-0.024713,-0.002832,left
-0.114131,0.29585,0.922198,0.01596,-0.021366,-0.004376,left
-0.11407,0.301096,0.921344,0.021624,-0.025228,-0.001974,left
-0.113399,0.30012,0.922137,0.02497,-0.021709,-0.000772,left
-0.114192,0.299815,0.921771,0.024455,-0.02866,-0.002317,left
-0.115961,0.30195,0.921222,0.027973,-0.027287,-0.002832,left
-0.118157,0.299266,0.922625,0.043247,-0.011412,0.0133,left
-0.113277,0.301401,0.921283,0.02128,-0.022997,-0.009696,left
-0.116388,0.301401,0.920795,0.009954,-0.014502,-0.005663,left
-0.11285,0.303353,0.918538,0.020422,-0.026772,-0.001888,left
-0.114985,0.307623,0.920429,0.039129,-0.029947,-0.001459,left
-0.111203,0.323239,0.914329,0.023082,-0.027373,-0.005234,left
-0.111142,0.324032,0.913841,0.026086,-0.025742,-0.002746,left
-0.111752,0.324215,0.913414,0.02437,-0.025828,-0.00532,left
-0.111508,0.323849,0.914024,0.043676,-0.025657,-0.005749,left
-0.110349,0.325252,0.913292,0.022997,-0.028746,-0.004205,left
-0.112179,0.325923,0.913597,0.020337,-0.026601,-0.005578,left
-0.112606,0.325679,0.913597,0.021109,-0.022911,-0.006264,left
-0.112362,0.327509,0.912499,0.027802,-0.026515,-0.003261,left
-0.112057,0.326533,0.913048,0.02394,-0.043934,-0.003347,left
-0.111447,0.327082,0.91256,0.029518,-0.027201,-0.003518,left
-0.100772,0.522587,0.814045,0.030719,-0.013472,-0.004205,left
-0.094123,0.51911,0.81557,0.036726,-0.017162,0.00369,left
-0.093635,0.516792,0.819657,0.021366,-0.014931,-0.002746,left
-0.095282,0.519476,0.817217,0.02969,-0.028917,-0.006264,left
-0.094611,0.517951,0.818254,0.028574,-0.01965,-0.002832,left
-0.094245,0.518439,0.818498,0.02497,-0.02334,-0.003003,left
-0.094489,0.518622,0.818315,0.033379,-0.026858,-0.000858,left
-0.093391,0.516487,0.819047,0.000858,-0.025914,-0.003947,left
-0.09455,0.517524,0.818498,0.028403,-0.026343,-0.003347,left
-0.095587,0.517768,0.818498,0.027888,-0.028231,-0.001974,left
-0.101687,0.628666,0.737368,0.024112,-0.024884,-0.005406,left
-0.102358,0.628727,0.736697,0.024541,-0.021967,-0.001459,left
-0.101321,0.628544,0.737063,0.026686,-0.017419,-0.001545,left
-0.102419,0.627812,0.7381,0.023082,-0.019822,-0.003947,left
-0.101809,0.629337,0.7381,0.028231,-0.027802,-0.003604,left
-0.103029,0.628056,0.738893,0.024284,-0.023683,-0.004033,left
-0.103334,0.628727,0.737978,0.027716,-0.028403,-0.006521,left
-0.102358,0.628422,0.737429,0.027201,-0.015531,-0.001888,left
-0.101443,0.629703,0.736941,0.025228,-0.029518,-0.010469,left
-0.102724,0.627141,0.738588,0.024284,-0.025399,-0.007122,left
-0.101809,0.621529,0.742065,0.042475,-0.032178,0.005663,left
-0.102846,0.619821,0.742675,0.038614,-0.026686,-0.003261,left
-0.104493,0.618357,0.743956,0.035353,-0.025313,-0.003261,left
-0.102968,0.616344,0.745542,0.034237,-0.02763,-0.004548,left
-0.104859,0.615124,0.746762,0.030462,-0.020337,-0.00738,left
-0.105408,0.615429,0.746701,0.026858,-0.017333,-0.002832,left
-0.103334,0.615246,0.747311,0.024884,-0.021195,-0.005234,left
-0.102724,0.613294,0.749141,0.026086,-0.024884,-0.004462,left
-0.103761,0.611891,0.751459,0.010125,-0.063412,-0.050541,left
-0.103944,0.61976,0.745115,0.02497,-0.023511,-0.000686,left
-0.144021,0.261995,0.93208,0.002917,-0.017247,-0.009181,left
-0.138958,0.266692,0.929152,0.009868,-0.025056,-0.009696,left
-0.141703,0.272121,0.92903,0.006607,-0.021366,-0.008409,left
-0.136518,0.273951,0.928054,0.005749,-0.023082,-0.008495,left
-0.138592,0.278831,0.926651,0.019393,-0.02969,-0.00738,left
-0.138958,0.278953,0.927322,0.029003,-0.025828,-0.004634,left
-0.14091,0.278526,0.9272,0.014587,-0.025228,-0.007637,left
-0.140117,0.282369,0.926346,0.024884,-0.024799,-0.007036,left
-0.138714,0.282918,0.92537,0.020251,-0.017333,-0.006865,left
-0.137555,0.283284,0.924943,0.016218,-0.019393,-0.008238,left
-0.124684,0.487146,0.834297,0.034838,-0.02231,-0.006607,left
-0.122,0.499651,0.838323,0.007465,-0.012442,-0.013558,left
-0.119438,0.484706,0.837286,0.010125,-0.019221,-0.006693,left
-0.120048,0.488366,0.834236,0.025485,-0.017162,-0.004462,left
-0.117486,0.486902,0.834236,0.019393,-0.017934,-0.008752,left
-0.118584,0.491111,0.833809,0.020766,-0.023683,-0.004719,left
-0.118828,0.490928,0.833199,0.020851,-0.024627,-0.01064,left
-0.116144,0.489952,0.83387,0.040158,-0.027115,-0.021023,left
-0.115107,0.487817,0.834602,0.031663,-0.018363,-0.000858,left
-0.116876,0.488122,0.835334,0.02497,-0.016389,-0.004719,left
-0.113704,0.485255,0.837042,0.031921,-0.048653,-0.03398,left
-0.113704,0.477203,0.839909,0.038871,-0.028403,-0.004891,left
-0.119682,0.476654,0.838323,0.025742,-0.015875,-0.017419,left
-0.111264,0.476105,0.841556,0.018106,-0.012785,-0.004462,left
-0.112911,0.478667,0.839238,0.033723,-0.018277,0.00635,left
-0.112606,0.475678,0.841068,0.028488,-0.016046,0.002832,left
-0.113216,0.47702,0.840336,0.000086,-0.020851,-0.001974,left
-0.112606,0.475617,0.841495,0.025142,-0.020594,-0.002832,left
-0.112545,0.477813,0.840275,0.02969,-0.021366,-0.001545,left
-0.113033,0.478179,0.842105,0.030119,-0.021452,-0.003003,left
-0.156038,0.333731,0.904691,0.008581,-0.018277,-0.006007,left
-0.156892,0.335622,0.903837,0.016218,-0.020594,-0.004205,left
-0.154696,0.338306,0.903044,0.021195,-0.021109,-0.00532,left
-0.153293,0.338794,0.902922,0.017934,-0.022224,-0.004205,left
-0.154452,0.340502,0.902129,0.026257,-0.024284,-0.000858,left
-0.15372,0.339526,0.901336,0.023426,-0.017676,-0.00266,left
-0.153537,0.342027,0.90219,0.016218,-0.021366,-0.00695,left
-0.151951,0.341112,0.90158,0.024198,-0.017333,-0.005492,left
-0.153415,0.343979,0.900848,0.014073,-0.019221,-0.001373,left
-0.150731,0.345138,0.900787,0.01862,-0.020766,-0.004548,left
-0.149938,0.35502,0.897127,0.025742,-0.021195,-0.002832,left
-0.149328,0.355264,0.896456,0.029346,-0.02866,-0.003175,left
-0.150243,0.356728,0.8967,0.025142,-0.023597,-0.003776,left
-0.146949,0.354654,0.89853,0.028488,-0.019908,-0.001201,left
-0.147376,0.357704,0.897066,0.020594,-0.042647,-0.001802,left
-0.147803,0.355874,0.897188,0.028488,-0.023769,-0.001545,left
-0.148657,0.356301,0.896517,0.043247,-0.043934,-0.001373,left
-0.14823,0.358253,0.896639,0.000343,-0.027802,0.001116,left
-0.148718,0.359046,0.896273,0.031663,-0.02394,0.002231,left
-0.149023,0.358375,0.896578,0.02231,-0.019564,-0.000858,left
-0.135481,0.526552,0.807884,0.024198,-0.02231,-0.010383,left
-0.137189,0.526857,0.809897,0.032092,-0.01699,0.021023,left
-0.135847,0.52643,0.809043,0.025657,-0.021881,-0.005578,left
-0.136457,0.524173,0.810812,0.025657,-0.025657,-0.004977,left
-0.135359,0.526247,0.809226,0.023168,-0.026515,-0.007637,left
-0.134993,0.525515,0.808799,0.025571,-0.022568,-0.004634,left
-0.13603,0.52582,0.809592,0.032521,-0.022482,-0.00266,left
-0.133468,0.523563,0.809226,0.035439,-0.037927,-0.009353,left
-0.135725,0.525454,0.807823,0.037756,-0.016218,-0.005148,left
-0.134749,0.523868,0.810812,0.021967,-0.020165,-0.008409,left
-0.131882,0.527467,0.809653,0.025142,-0.024713,-0.005921,left
-0.132309,0.528809,0.808921,0.028231,-0.027802,-0.003604,left
-0.132126,0.528504,0.808677,0.021195,-0.021366,-0.00695,left
-0.131638,0.527528,0.808738,0.022482,-0.019993,-0.007551,left
-0.131882,0.529602,0.806664,0.026171,-0.019736,-0.005063,left
-0.130967,0.528504,0.807762,0.024112,-0.021709,-0.004719,left
-0.130113,0.52948,0.807518,0.027716,-0.026944,-0.005234,left
-0.13054,0.530029,0.807762,0.02703,-0.025313,-0.00429,left
-0.129808,0.528443,0.807152,0.02763,-0.042303,-0.005749,left
-0.13054,0.529114,0.806725,0.025914,-0.019135,-0.002488,left
-0.161772,0.334646,0.905057,0.010812,-0.008838,-0.000858,left
-0.159515,0.33611,0.904447,0.018106,-0.017591,-0.002317,left
-0.16043,0.337391,0.903593,0.019993,-0.000343,-0.004634,left
-0.160003,0.337696,0.903654,0.007122,-0.016647,-0.005234,left
-0.156831,0.338916,0.903227,0.02703,-0.02437,-0.00266,left
-0.159393,0.340624,0.902922,0.026171,-0.043848,0.00429,left
-0.160125,0.339953,0.903349,0.021366,-0.000172,-0.00429,left
-0.15921,0.340624,0.903349,0.043419,-0.019307,-0.001116,left
-0.157624,0.341722,0.902251,0.033723,-0.023426,0.021366,left
-0.159271,0.342393,0.903532,0.021538,-0.016818,-0.00103,left
-0.177449,0.245586,0.931592,0.013472,-0.043848,-0.009353,left
-0.176168,0.247721,0.930067,0.043419,-0.020851,-0.003947,left
-0.177205,0.247599,0.929396,0.020422,-0.025657,-0.00695,left
-0.177266,0.247782,0.930433,0.019478,-0.025228,-0.004977,left
-0.177083,0.249368,0.930921,0.027888,-0.030805,-0.005406,left
-0.177693,0.24827,0.930433,0.017162,-0.024455,-0.004119,left
-0.177449,0.249002,0.930799,0.043247,-0.000601,-0.004205,left
-0.179828,0.25254,0.929274,0.031234,-0.033723,-0.004548,left
-0.179645,0.252357,0.927688,0.042218,-0.042904,0.003604,left
-0.176412,0.249612,0.928481,0.006693,-0.011498,-0.005406,left
-0.154208,0.478362,0.834907,0.021023,-0.029518,-0.03767,left
-0.150792,0.480802,0.834602,0.04033,-0.024026,-0.003175,left
-0.151951,0.478667,0.836249,0.039901,-0.025399,-0.000858,left
-0.15311,0.477874,0.835456,0.019564,-0.007809,-0.005921,left
-0.149694,0.476959,0.83875,0.026686,-0.00103,-0.005749,left
-0.143045,0.471896,0.827282,0.056977,0.074825,-0.009954,left
-0.145241,0.473299,0.846558,0.022396,-0.025313,-0.012185,left
-0.138287,0.472262,0.844911,0.021967,-0.027802,-0.007208,left
-0.138043,0.469578,0.84424,0.016818,-0.026772,-0.004977,left
-0.13847,0.469822,0.845277,0.025313,-0.028231,-0.006007,left
-0.101321,0.631106,0.732305,0.032006,-0.011412,-0.00369,left
-0.100467,0.630435,0.732915,0.02437,-0.010812,-0.001802,left
-0.100467,0.631228,0.733464,0.033122,-0.001201,-0.004119,left
-0.099369,0.62891,0.735355,0.026171,-0.01433,-0.004376,left
-0.099369,0.628544,0.734745,0.026601,-0.017333,-0.005578,left
-0.096685,0.627751,0.73505,0.034066,-0.020337,-0.006607,left
-0.099125,0.628361,0.735782,0.039129,-0.020766,-0.000944,left
-0.098332,0.627995,0.736514,0.054831,-0.029432,-0.000343,left
-0.096258,0.621041,0.743529,0.012528,-0.013644,-0.012271,left
-0.095282,0.623298,0.741577,0.026,-0.019049,-0.005492,left
-0.092598,0.608902,0.754692,0.033894,-0.01536,-0.004033,left
-0.09272,0.608902,0.754448,0.040158,-0.019822,-0.004033,left
-0.088206,0.606462,0.756583,0.045993,-0.038699,-0.002403,left
-0.094794,0.602924,0.759145,0.047795,-0.035181,-0.008323,left
-0.091073,0.604327,0.759755,0.030204,-0.023426,-0.001287,left
-0.091744,0.601643,0.760548,0.020508,-0.014073,-0.00266,left
-0.09272,0.598959,0.761707,0.040931,-0.013815,-0.007208,left
-0.089853,0.602375,0.759511,0.022568,-0.00901,-0.003003,left
-0.087169,0.603107,0.75823,0.024455,-0.01596,-0.004977,left
-0.087169,0.603107,0.758657,0.048911,-0.030891,-0.000772,left
-0.138226,0.20923,0.947696,-0.003518,-0.010297,-0.007637,left
-0.134017,0.212951,0.945378,-0.003861,-0.019135,-0.011155,left
-0.135298,0.219356,0.944341,-0.006436,-0.017848,-0.008323,left
-0.133895,0.22387,0.94306,0.007122,-0.019307,-0.007294,left
-0.135359,0.227835,0.94184,0.012271,-0.000686,-0.006865,left
-0.132858,0.229909,0.941352,-0.007723,-0.010211,-0.003518,left
-0.130967,0.240401,0.938607,0.008495,-0.027373,-0.016218,left
-0.129686,0.244305,0.93696,0.016475,-0.021881,-0.006264,left
-0.130296,0.246074,0.936472,0.0133,-0.024884,-0.007036,left
-0.129869,0.248087,0.935557,0.000086,-0.026515,-0.005921,left
-0.098515,0.427061,0.869982,0.025228,-0.020766,-0.006693,left
-0.098881,0.425658,0.871446,0.024026,-0.019822,-0.006264,left
-0.096868,0.428159,0.870287,0.023855,-0.019993,-0.003776,left
-0.095892,0.428647,0.86925,0.024026,-0.024455,-0.00635,left
-0.09638,0.428952,0.869128,0.023597,-0.024198,-0.005921,left
-0.096075,0.42883,0.869921,0.024713,-0.025228,-0.006521,left
-0.097051,0.429074,0.86925,0.029861,-0.022739,-0.017333,left
-0.098576,0.431697,0.86803,0.030719,-0.02866,-0.004805,left
-0.09943,0.429623,0.867969,0.033894,-0.026601,-0.003518,left
-0.100528,0.43005,0.868701,0.036554,-0.034752,-0.005063,left
-0.100833,0.549183,0.795013,0.029261,-0.023855,-0.007809,left
-0.101199,0.549793,0.795257,0.037069,-0.025399,-0.005578,left
-0.101382,0.549671,0.796599,0.029775,-0.026429,-0.006178,left
-0.100711,0.549183,0.796843,0.02763,-0.025914,-0.006092,left
-0.100894,0.549549,0.796233,0.029432,-0.020251,-0.004462,left
-0.100467,0.549183,0.796721,0.028746,-0.030204,-0.009181,left
-0.099918,0.549854,0.796599,0.022739,-0.023597,-0.007208,left
-0.100284,0.550769,0.795074,0.036297,-0.021195,0.000944,left
-0.101809,0.548512,0.795989,0.026772,-0.026257,-0.005063,left
-0.102297,0.548085,0.794586,0.024799,-0.021452,-0.009096,left
-0.093513,0.638304,0.728096,0.020251,-0.01699,-0.006436,left
-0.092964,0.63867,0.727364,0.028145,-0.020766,-0.007036,left
-0.092354,0.639097,0.72712,0.021967,-0.02068,-0.006865,left
-0.092476,0.639646,0.727852,0.024799,-0.01965,-0.005921,left
-0.091622,0.639707,0.727547,0.035696,-0.027544,-0.004119,left
-0.092659,0.638853,0.727974,0.032521,-0.00103,-0.006779,left
-0.094306,0.638548,0.72956,0.02763,-0.023683,-0.005749,left
-0.092415,0.635925,0.729621,0.028059,-0.028059,-0.006092,left
-0.093818,0.636596,0.729987,0.022911,-0.017419,-0.006007,left
-0.092842,0.636718,0.730109,0.026,-0.023769,-0.006264,left
-0.102053,0.699609,0.667035,0.025657,-0.021538,-0.007723,left
-0.103029,0.700829,0.667401,0.022053,-0.043505,-0.009181,left
-0.102602,0.701073,0.667645,0.035696,-0.027459,0.003261,left
-0.104371,0.698938,0.669658,0.026,-0.02437,-0.005406,left
-0.104981,0.697962,0.671183,0.025657,-0.024455,-0.008323,left
-0.104981,0.69906,0.670878,0.027888,-0.026601,-0.007294,left
-0.10492,0.698389,0.671244,0.028403,-0.024284,-0.01064,left
-0.10553,0.699792,0.671732,0.025056,-0.028574,-0.010469,left
-0.104249,0.697352,0.672403,0.028231,-0.023597,-0.012442,left
-0.102419,0.698389,0.671732,0.032092,-0.027115,-0.005835,left
-0.095953,0.747799,0.618052,0.048739,-0.021023,-0.008924,left
-0.092659,0.749934,0.616954,0.04196,-0.023168,-0.006178,left
-0.09211,0.747006,0.62037,0.030376,-0.023426,-0.005749,left
-0.09211,0.746579,0.62037,0.026171,-0.022739,-0.009096,left
-0.092171,0.746335,0.621468,0.031663,-0.024799,-0.007894,left
-0.09211,0.745481,0.622078,0.023855,-0.000429,-0.008495,left
-0.09211,0.745176,0.62159,0.027802,-0.02763,-0.007294,left
-0.092781,0.745847,0.6222,0.029261,-0.027459,-0.007551,left
-0.091805,0.744871,0.624274,0.02128,-0.029775,-0.009868,left
-0.092537,0.744017,0.623725,0.019908,-0.033808,-0.012957,left
-0.120902,0.395463,0.887733,-0.047452,0.00532,0.009782,left
-0.11895,0.412604,0.879132,-0.009439,-0.012185,-0.008838,left
-0.117852,0.413336,0.878949,-0.003432,0.011155,-0.00738,left
-0.110471,0.423035,0.86864,0.020594,0.000772,0.006779,left
-0.106872,0.427427,0.873093,0.025399,-0.043934,-0.002403,left
-0.103456,0.425414,0.871507,0.025657,-0.016046,-0.001459,left
-0.108153,0.429806,0.876143,-0.039472,-0.006092,-0.005406,left
-0.09699,0.432856,0.86742,0.006693,-0.033465,-0.022997,left
-0.108397,0.429074,0.873642,0.02128,-0.012271,-0.003089,left
-0.103212,0.43676,0.867908,0.039043,-0.028231,0,left
-0.105103,0.616161,0.747494,0.038442,-0.022139,-0.018191,left
-0.104066,0.617564,0.748226,0.024884,-0.029346,-0.005749,left
-0.10431,0.620126,0.745237,0.02703,-0.020937,0.00266,left
-0.105225,0.617808,0.746823,0.028574,-0.027287,-0.00635,left
-0.104249,0.618418,0.747067,0.017591,-0.025056,-0.006264,left
-0.103944,0.619333,0.745725,0.030805,-0.021538,-0.005578,left
-0.106628,0.619272,0.745725,0.059122,-0.034409,0.003776,left
-0.107787,0.615978,0.748165,0.024799,-0.018706,-0.003861,left
-0.105591,0.615978,0.748104,0.027115,-0.043934,-0.005492,left
-0.105469,0.615246,0.748226,0.028059,-0.019993,-0.004548,left
-0.106689,0.692106,0.672403,0.029775,-0.013815,-0.004891,left
-0.10736,0.692045,0.673196,0.024284,-0.022224,-0.001974,left
-0.105164,0.689483,0.676124,0.017762,-0.025828,-0.011842,left
-0.104493,0.692228,0.67344,0.026944,-0.025056,-0.009181,left
-0.10492,0.689849,0.67588,0.018106,-0.018792,-0.018449,left
-0.101626,0.693509,0.673074,0.029518,-0.026,-0.007809,left
-0.105042,0.690459,0.675026,0.018363,-0.017505,-0.008752,left
-0.101504,0.692716,0.673745,0.01965,-0.025485,-0.013729,left
-0.101809,0.691679,0.674721,0.025742,-0.028403,-0.008323,left
-0.104249,0.692594,0.673562,0.025485,-0.022911,-0.00429,left
-0.086986,0.290238,0.930128,0.005234,-0.011327,-0.013558,left
-0.078324,0.304207,0.924455,0.027973,-0.065643,-0.011155,left
-0.083753,0.300303,0.926834,0.014502,-0.041016,-0.016904,left
-0.088206,0.305122,0.925248,0.016561,-0.035181,-0.001287,left
-0.089182,0.306464,0.923113,0.01802,-0.016304,0.001287,left
-0.090585,0.30561,0.921771,0.018535,-0.027802,-0.001888,left
-0.088877,0.307501,0.922625,0.010554,-0.038013,-0.012442,left
-0.091622,0.309026,0.921222,0.001888,-0.024112,-0.001287,left
-0.087962,0.306952,0.922198,0.01167,-0.042218,-0.013987,left
-0.098759,0.310612,0.921222,0.028231,-0.032178,-0.000944,left
-0.103334,0.634095,0.730963,0.051313,-0.033723,-0.006007,left
-0.09394,0.633485,0.733708,0.047195,-0.020508,0.009353,left
-0.112423,0.627202,0.739381,0.023426,-0.012099,0.00738,left
-0.108275,0.626897,0.738954,0.016818,-0.02703,-0.006007,left
-0.105408,0.627934,0.736209,0.035181,-0.030977,-0.004119,left
-0.108763,0.627324,0.737856,0.02128,-0.016389,-0.005663,left
-0.108031,0.62647,0.73871,0.023254,-0.018706,-0.00163,left
-0.107604,0.627141,0.737856,0.024455,-0.028059,-0.005663,left
-0.109312,0.62952,0.737856,0.014845,-0.018106,-0.005492,left
-0.105469,0.627019,0.736636,0.031663,-0.029175,-0.005835,left
-0.097905,0.726998,0.640134,0.018878,-0.042561,-0.007036,left
-0.099125,0.726632,0.64111,0.02703,-0.033379,0.001459,left
-0.099308,0.730231,0.637938,0.015875,-0.030891,-0.003003,left
-0.099796,0.724314,0.640012,0.025742,-0.022911,-0.011584,left
-0.100467,0.728279,0.638426,0.026601,-0.029003,-0.006264,left
-0.101931,0.728889,0.638792,0.024284,-0.043934,-0.011069,left
-0.094428,0.727608,0.638914,0.030891,-0.028317,-0.011155,left
-0.100467,0.726937,0.641232,0.029518,-0.030033,-0.0127,left
-0.100162,0.726937,0.642269,0.021795,-0.027459,-0.008495,left
-0.095038,0.725412,0.645502,0.010554,-0.016475,-0.010726,left
-0.116876,0.512461,0.819779,0.00798,-0.019736,-0.011412,left
-0.116754,0.518439,0.818498,0.00635,-0.033808,-0.004634,left
-0.118401,0.517707,0.817644,0.015617,-0.01965,-0.005578,left
-0.117974,0.521611,0.815204,0.019049,-0.017591,-0.007723,left
-0.113216,0.522343,0.815875,0.035439,-0.025399,-0.005234,left
-0.119499,0.5185,0.817827,0.006865,-0.024026,-0.0127,left
-0.118401,0.522892,0.815448,0.021538,-0.030719,-0.01004,left
-0.116998,0.52643,0.81252,0.011069,-0.026515,0.001888,left
-0.116327,0.524722,0.810446,0.020079,-0.017076,-0.00369,left
-0.117913,0.530029,0.809592,0.017076,-0.025228,-0.001888,left
-0.115107,0.531676,0.809775,0.026944,-0.024112,-0.004119,left
-0.114009,0.531737,0.810629,0.016389,-0.018878,-0.006607,left
-0.113704,0.531981,0.80947,0.026772,-0.026171,-0.001459,left
-0.114009,0.532774,0.807884,0.030548,-0.031234,-0.002145,left
-0.114619,0.533445,0.80642,0.023426,-0.024455,-0.007465,left
-0.11346,0.534177,0.806664,0.027888,-0.023254,-0.00163,left
-0.11224,0.533994,0.80764,0.018964,-0.016389,-0.005234,left
-0.111691,0.53436,0.808067,0.021195,-0.01802,-0.009181,left
-0.110959,0.536434,0.807518,0.034066,-0.027716,-0.004634,left
-0.111508,0.53436,0.809104,0.054317,-0.031234,0.004033,left
-0.194163,0.364109,0.886086,0.02334,-0.023683,-0.008323,left
-0.199043,0.36295,0.885781,0.009696,-0.018878,-0.000686,left
-0.194346,0.373625,0.882731,0.043076,-0.030977,-0.00103,left
-0.200751,0.363621,0.884988,0.005663,-0.020079,-0.007723,left
-0.192333,0.373991,0.881816,0.016304,-0.024026,-0.004462,left
-0.193919,0.375455,0.881877,0.015445,-0.032865,0.003089,left
-0.19398,0.364658,0.882548,0.03029,-0.039472,-0.026858,left
-0.210267,0.376248,0.877485,0.041274,-0.042389,-0.006092,left
-0.201117,0.374052,0.876814,0.055003,-0.034924,0.006521,left
-0.197518,0.363865,0.881023,0.033551,0.016733,0.035181,left
-0.23424,0.345199,0.88938,0.012185,-0.01699,-0.005148,left
-0.218746,0.353495,0.886513,0.017505,-0.034237,-0.001802,left
-0.20313,0.35868,0.884317,0.033379,-0.038957,-0.002746,left
-0.221186,0.35441,0.885598,0.023597,-0.028832,-0.003604,left
-0.221491,0.351726,0.884195,0.000257,0.005406,-0.013043,left
-0.217221,0.364048,0.882243,0.02128,-0.019993,-0.001545,left
-0.216611,0.360266,0.88267,0.017934,-0.000686,-0.02394,left
-0.214232,0.368684,0.880962,0.024884,-0.023769,-0.006007,left
-0.211243,0.366427,0.88267,0.036125,-0.029346,-0.003518,left
-0.210633,0.369538,0.88206,0.045564,-0.037241,0.003947,left
-0.195688,0.664534,0.691252,0.032693,-0.026601,0.002145,left
-0.218441,0.66368,0.702415,0.06367,-0.04934,0.026601,left
-0.199592,0.648064,0.699548,0.003947,-0.011927,-0.019822,left
-0.205204,0.649101,0.69967,0.002574,0.009353,-0.007723,left
-0.199043,0.656299,0.694607,0.026944,-0.017848,0.007551,left
-0.196847,0.640378,0.695034,0.040158,-0.03561,-0.000686,left
-0.197518,0.654286,0.696376,0.034066,-0.03295,0.003089,left
-0.198311,0.65636,0.694424,0.02866,-0.019478,-0.005921,left
-0.202093,0.652761,0.696559,0.025657,-0.042818,-0.007122,left
-0.203313,0.671122,0.694424,0.006779,-0.005663,0.00266,left
-0.18849,0.662033,0.691496,0.029518,-0.02437,-0.001545,left
-0.188307,0.663192,0.690703,0.027115,-0.026171,-0.00429,left
-0.187331,0.663009,0.691313,0.031148,-0.026944,-0.000772,left
-0.187331,0.662094,0.691862,0.021195,-0.026601,-0.008752,left
-0.187697,0.663436,0.691984,0.036383,-0.023254,0.002231,left
-0.187758,0.660996,0.693814,0.026257,-0.043848,-0.003089,left
-0.188063,0.661301,0.693936,0.021967,-0.016389,-0.001716,left
-0.187331,0.660813,0.694424,0.000515,-0.020937,-0.003175,left
-0.188185,0.659837,0.694485,0.019822,-0.021624,-0.003261,left
-0.187636,0.660752,0.694058,0.027201,-0.041789,-0.002231,left
-0.183305,0.662277,0.691862,0.033122,-0.02497,-0.000343,left
-0.182268,0.659593,0.692228,0.030462,-0.018106,-0.00103,left
-0.182207,0.66307,0.690642,0.036726,-0.026772,0.000858,left
-0.186538,0.658373,0.693997,0.012185,-0.018363,-0.007551,left
-0.181841,0.666059,0.6893,0.022568,-0.016304,-0.001716,left
-0.182634,0.659532,0.694119,0.037584,-0.023683,0.003947,left
-0.183061,0.658556,0.694119,0.022997,-0.020851,-0.002231,left
-0.181048,0.66124,0.692472,0.038699,-0.029604,0.001545,left
-0.182207,0.658312,0.693814,0.02437,-0.020766,-0.00266,left
-0.181292,0.659532,0.693692,0.040759,-0.028231,0.001201,left
-0.232654,0.374235,0.870958,0.012871,-0.043762,-0.000601,left
-0.231312,0.377651,0.869494,0.014845,-0.024627,-0.000686,left
-0.229726,0.380884,0.869189,0.031063,-0.037241,0.001373,left
-0.23302,0.377529,0.869311,0.033208,-0.029261,-0.004891,left
-0.231617,0.382104,0.868823,0.026601,-0.030462,-0.003947,left
-0.231434,0.380945,0.868701,0.028403,-0.001287,-0.002488,left
-0.230336,0.384117,0.868335,0.025142,-0.022568,-0.004719,left
-0.230031,0.38125,0.869128,0.00901,-0.009267,-0.013214,left
-0.23119,0.384239,0.867298,0.017162,-0.010125,0.002059,left
-0.222528,0.394853,0.865346,0.028145,-0.02866,-0.001201,left
-0.217892,0.393267,0.867664,0.007894,-0.027115,-0.012185,left
-0.21655,0.396683,0.865834,0.028403,-0.021795,-0.004891,left
-0.216306,0.397415,0.865346,0.026171,-0.025914,-0.003175,left
-0.217709,0.397781,0.864553,0.031749,-0.029518,-0.003947,left
-0.216672,0.394304,0.865895,0.021795,-0.019478,-0.004462,left
-0.216123,0.397781,0.864492,0.029346,-0.026171,-0.002059,left
-0.218502,0.397232,0.864309,0.02394,-0.025742,-0.001802,left
-0.217526,0.398086,0.863943,0.025742,-0.025485,-0.000601,left
-0.215635,0.398269,0.864187,0.022653,-0.020851,-0.003261,left
-0.215879,0.398635,0.863638,0.027716,-0.02068,-0.002059,left
-0.222955,0.261751,0.917135,-0.012871,-0.022224,-0.011155,left
-0.223382,0.272243,0.914878,0.008581,-0.024026,-0.003089,left
-0.222101,0.273829,0.912255,-0.015789,-0.030977,-0.006607,left
-0.223077,0.281881,0.910303,-0.001373,-0.027544,-0.004805,left
-0.222955,0.284016,0.908534,0.00266,-0.02231,-0.01004,left
-0.222894,0.28975,0.907375,0.014158,-0.02231,-0.004805,left
-0.224175,0.294325,0.904874,0.004805,-0.01862,-0.001802,left
-0.224297,0.298107,0.902861,0.005492,-0.018191,-0.005492,left
-0.222284,0.302621,0.902007,0.030376,-0.031577,-0.002145,left
-0.227774,0.297741,0.901336,-0.005063,-0.025742,0.004119,left
-0.209657,0.751276,0.585295,0.03235,-0.028917,-0.008667,left
-0.206851,0.749934,0.588101,0.022139,-0.020766,-0.00738,left
-0.204472,0.75152,0.586576,0.03827,-0.026858,-0.010983,left
-0.208681,0.748592,0.588223,0.027802,-0.022396,0.001287,left
-0.209169,0.746457,0.594079,0.025056,-0.011412,-0.014244,left
-0.211914,0.741943,0.59719,-0.00369,-0.012271,-0.027287,left
-0.202825,0.750544,0.588284,0.022739,-0.026858,-0.01433,left
-0.2013,0.749019,0.590541,0.029861,-0.023511,-0.006779,left
-0.203618,0.751154,0.588162,0.039129,-0.032521,-0.006607,left
-0.201849,0.751337,0.588772,0.029175,-0.02763,-0.004462,left
-0.198067,0.846192,0.446886,0.006693,-0.009096,-0.013472,left
-0.191906,0.851072,0.44103,0.04462,-0.034838,0.003861,left
-0.196054,0.847351,0.446154,0.020337,-0.02437,-0.009611,left
-0.195261,0.847717,0.446398,0.028574,-0.01699,-0.005921,left
-0.193065,0.848022,0.44652,0.030033,-0.025914,-0.005063,left
-0.195322,0.846009,0.448594,0.01596,-0.015102,-0.01596,left
-0.192821,0.848388,0.445483,0.024884,-0.020508,-0.011584,left
-0.188429,0.852292,0.441396,0.036812,-0.010469,-0.013815,left
-0.180072,0.852292,0.443287,0.046165,-0.028231,0.002317,left
-0.184098,0.850584,0.44591,0.026772,-0.023254,-0.005663,left
-0.182451,0.843813,0.45994,0.036039,-0.025914,0.000601,left
-0.179035,0.844911,0.460306,0.033637,-0.025313,-0.021967,left
-0.182634,0.843874,0.461953,0.022482,-0.01802,-0.002574,left
-0.181231,0.844362,0.461221,0.025914,-0.026686,-0.005663,left
-0.181109,0.84424,0.461099,0.034495,-0.001459,-0.007465,left
-0.179035,0.844118,0.460794,0.030376,-0.02128,-0.000429,left
-0.174338,0.84485,0.462563,0.038099,-0.02497,0.006092,left
-0.184403,0.842227,0.463051,0.013729,-0.013386,-0.004119,left
-0.180255,0.843325,0.462075,0.024799,-0.01965,-0.001888,left
-0.177083,0.842166,0.464698,0.033208,-0.026343,-0.002059,left
-0.175375,0.71431,0.641232,0.02763,-0.017076,-0.008581,left
-0.176778,0.714005,0.640134,0.01699,-0.021709,-0.000858,left
-0.18239,0.712236,0.64111,0.010125,-0.018964,-0.002145,left
-0.179462,0.716323,0.638731,0.016046,-0.043162,-0.002145,left
-0.179767,0.715835,0.638731,0.015445,-0.013815,-0.004891,left
-0.179096,0.715896,0.637633,0.028145,-0.012528,-0.003003,left
-0.175863,0.717604,0.63623,0.030204,-0.029003,0.004462,left
-0.177693,0.716445,0.638304,0.01862,-0.008409,-0.001716,left
-0.175497,0.71797,0.636657,0.024713,-0.020165,-0.005148,left
-0.176046,0.717421,0.637877,0.014502,-0.009868,-0.005063,left
-0.151585,0.618235,0.737551,0.043676,-0.021023,-0.003347,left
-0.152195,0.61671,0.737856,0.020337,-0.007465,-0.001201,left
-0.1525,0.614575,0.738832,0.007208,-0.020851,-0.020165,left
-0.152378,0.622261,0.734928,0.036468,-0.024112,0.007894,left
-0.152195,0.618235,0.737185,0.017505,-0.042561,-0.003261,left
-0.15677,0.616405,0.736514,0.020766,0.010469,-0.012442,left
-0.15128,0.62525,0.732732,0.042475,-0.034152,0.009611,left
-0.148657,0.620431,0.735599,0.032607,-0.038528,0.000944,left
-0.155855,0.618784,0.734745,0.022997,-0.012099,-0.007894,left
-0.149755,0.618174,0.737002,0.037412,-0.01699,0.003432,left
-0.1647,0.472201,0.836737,0.021195,-0.018449,-0.021709,left
-0.167262,0.475617,0.833382,0.021023,-0.030719,0.003261,left
-0.16287,0.475251,0.833809,0.020422,-0.008066,0.007036,left
-0.160491,0.47763,0.831979,0.009782,-0.02334,-0.008838,left
-0.163541,0.478545,0.83265,0.031406,-0.026772,-0.00738,left
-0.165005,0.474824,0.833443,0.000343,-0.022396,-0.006264,left
-0.167872,0.47702,0.829417,0.036468,-0.034237,0.008238,left
-0.157258,0.478423,0.831796,0.015703,-0.042732,-0.006521,left
-0.166896,0.476715,0.834114,0.016046,-0.012356,-0.005921,left
-0.162687,0.483425,0.830088,0.020422,-0.018277,-0.011842,left
-0.157746,0.486597,0.830088,0.022396,-0.019221,-0.002917,left
-0.155245,0.484645,0.831003,0.018363,-0.018277,-0.003261,left
-0.155245,0.487512,0.829905,0.031406,-0.019908,-0.00103,left
-0.153537,0.488,0.828685,0.023082,-0.020594,-0.004719,left
-0.155794,0.487878,0.830576,0.029861,-0.021195,-0.004376,left
-0.152927,0.487756,0.829051,0.028059,-0.025399,-0.00695,left
-0.150914,0.489586,0.825391,0.054574,-0.055346,0.018277,left
-0.163785,0.482022,0.834236,0.016218,-0.005148,-0.000429,left
-0.155306,0.487939,0.829295,0.026686,-0.026858,-0.004805,left
-0.156465,0.487268,0.830454,0.023683,-0.019908,-0.004891,left
-0.105469,0.364902,0.89914,0.009696,-0.02128,-0.007723,left
-0.10492,0.370575,0.895907,0.015531,-0.026343,-0.005749,left
-0.104188,0.373808,0.89609,0.019478,-0.042818,-0.005148,left
-0.103517,0.375882,0.894992,0.020508,-0.042046,-0.006178,left
-0.103761,0.376858,0.892796,0.011327,-0.019736,-0.004119,left
-0.100406,0.378139,0.893467,0.023168,-0.018535,-0.004719,left
-0.102053,0.38186,0.891942,0.027373,-0.001201,-0.004205,left
-0.100467,0.382287,0.892247,0.036554,-0.047109,-0.011069,left
-0.103578,0.379359,0.892857,0.020766,-0.028403,-0.006178,left
-0.106018,0.380945,0.892796,0.027201,-0.025399,-0.003861,left
-0.125355,0.69723,0.667157,0.026772,-0.022997,-0.007637,left
-0.124257,0.697901,0.666242,0.026429,-0.025399,-0.006264,left
-0.122488,0.697718,0.666791,0.029089,-0.027973,-0.006007,left
-0.124318,0.698084,0.666608,0.029175,-0.020851,-0.003175,left
-0.121756,0.700829,0.663375,0.063326,-0.047366,-0.007465,left
-0.126575,0.692533,0.671427,0.011069,-0.020079,-0.012099,left
-0.123586,0.695461,0.668377,0.03398,-0.027802,-0.00429,left
-0.127246,0.6954,0.669353,0.020937,-0.000686,-0.008667,left
-0.124379,0.694119,0.670939,0.016818,-0.011498,-0.008066,left
-0.122549,0.696681,0.669231,0.011327,-0.010211,-0.009868,left
-0.113948,0.706075,0.660264,0.022053,-0.020251,-0.005663,left
-0.114436,0.707295,0.658739,0.030033,-0.025914,-0.005921,left
-0.113826,0.706624,0.658556,0.030204,-0.028574,-0.008667,left
-0.114924,0.70577,0.659166,0.042904,-0.018706,-0.006693,left
-0.112484,0.70699,0.658068,0.030462,-0.026858,-0.00695,left
-0.11285,0.707173,0.658007,0.024198,-0.022997,-0.007036,left
-0.115046,0.706502,0.657824,0.019564,-0.02437,-0.008152,left
-0.113277,0.70699,0.658129,0.024112,-0.023683,-0.006779,left
-0.114863,0.708088,0.656543,0.027973,-0.02334,-0.006264,left
-0.114985,0.706685,0.657824,0.030548,-0.026772,0.021023,left
-0.137616,0.827892,0.497577,0.02763,-0.026858,-0.006693,left
-0.136701,0.82716,0.498553,0.019908,-0.043676,-0.005492,left
-0.136152,0.829539,0.496052,0.027802,-0.025657,-0.004634,left
-0.134078,0.829356,0.496052,0.027544,-0.029003,-0.012442,left
-0.1342,0.828807,0.496662,0.026772,-0.023426,-0.006521,left
-0.135054,0.829661,0.495442,0.029861,-0.02128,-0.00369,left
-0.132797,0.827953,0.497638,0.024799,-0.019908,-0.006007,left
-0.135542,0.826794,0.499041,0.01802,-0.011412,-0.003518,left
-0.136152,0.827465,0.498492,0.02231,-0.0133,-0.009439,left
-0.133163,0.812032,0.498492,0.022482,-0.001716,-0.008238,left
-0.152195,0.905789,0.338306,0.02866,-0.019564,-0.004805,left
-0.152561,0.90524,0.339587,0.028488,-0.01965,-0.005921,left
-0.149938,0.906582,0.337635,0.032607,-0.043591,0.001201,left
-0.151524,0.904691,0.340258,0.017505,-0.016733,-0.009525,left
-0.149511,0.905545,0.340197,0.029861,-0.013815,-0.00266,left
-0.149938,0.905057,0.341417,0.029261,-0.008238,-0.010554,left
-0.146095,0.904813,0.342637,0.035696,-0.020508,-0.010469,left
-0.143716,0.90463,0.344101,0.024884,-0.023426,-0.010211,left
-0.143411,0.90463,0.344284,0.025571,-0.013043,-0.003347,left
-0.143167,0.903166,0.345992,0.016561,-0.043591,-0.023769,left
-0.11468,0.731878,0.628605,0.016647,-0.010726,-0.012271,left
-0.116937,0.734074,0.630496,0.01167,-0.020422,-0.012271,left
-0.113338,0.735904,0.629032,0.033465,-0.025657,-0.021538,left
-0.11468,0.734623,0.628849,0.026515,-0.017162,-0.001802,left
-0.114558,0.734013,0.629825,0.00798,-0.013644,-0.008495,left
-0.113094,0.737734,0.626653,0.034495,-0.034667,0.003175,left
-0.115046,0.736941,0.627629,0.019393,-0.019564,-0.003518,left
-0.116266,0.749324,0.630374,-0.010812,0.00635,-0.017762,left
-0.109373,0.73932,0.623481,0.034495,-0.003261,0.002403,left
-0.108946,0.739747,0.623664,0.028317,-0.032521,-0.00635,left
-0.092415,0.59475,0.766282,-0.013214,-0.017934,-0.009611,left
-0.091317,0.600667,0.761951,0.015531,-0.018964,-0.007036,left
-0.090219,0.603717,0.758901,0.023254,-0.025228,-0.006607,left
-0.090524,0.602558,0.759755,0.027973,-0.031063,-0.005921,left
-0.091988,0.603412,0.759511,0.019393,-0.018878,-0.006607,left
-0.090341,0.604754,0.758352,0.013558,-0.000772,-0.010469,left
-0.088755,0.60573,0.757742,0.017333,-0.018964,-0.00266,left
-0.086437,0.608719,0.755851,0.028145,-0.031234,-0.00532,left
-0.086437,0.608048,0.756278,0.021709,-0.028917,-0.008238,left
-0.088694,0.608658,0.755729,0.017848,-0.016647,-0.006865,left
-0.124684,0.518195,0.8174,0.013987,-0.017419,-0.005835,left
-0.121756,0.520879,0.81557,0.023254,-0.026257,-0.004548,left
-0.121695,0.520574,0.815204,0.01862,-0.026772,-0.008667,left
-0.120719,0.524051,0.813008,0.016389,-0.019993,-0.005835,left
-0.119377,0.524722,0.812215,0.012013,-0.017419,-0.003604,left
-0.118218,0.526369,0.810812,0.020508,-0.016561,-0.001974,left
-0.116388,0.52887,0.809836,0.01862,-0.027802,-0.007809,left
-0.118401,0.528321,0.809775,-0.00103,-0.01167,-0.017076,left
-0.113582,0.532469,0.807091,0.003861,-0.011584,-0.010812,left
-0.112362,0.535763,0.804529,0.013987,-0.018106,-0.002403,left
-0.101626,0.558882,0.788852,0.03029,-0.026,-0.001888,left
-0.10004,0.559187,0.788608,0.026944,-0.024884,-0.001802,left
-0.101626,0.557601,0.789279,0.019221,-0.017848,-0.001373,left
-0.101626,0.55754,0.789706,0.000944,-0.020766,-0.001802,left
-0.102114,0.55876,0.789279,0.029518,-0.022997,0.000343,left
-0.100894,0.558882,0.789401,0.023082,-0.020851,-0.004205,left
-0.102114,0.558699,0.78934,0.024884,-0.01862,-0.004977,left
-0.101931,0.558516,0.789828,0.017676,-0.019822,-0.005492,left
-0.098515,0.561627,0.78812,0.029003,-0.032693,-0.005148,left
-0.099857,0.561017,0.788242,0.019049,-0.021795,-0.006178,left
-0.107177,0.751703,0.607987,0.003175,-0.021195,-0.009696,left
-0.104554,0.755119,0.60573,0.031406,-0.020251,-0.004462,left
-0.105896,0.752557,0.607194,0.025657,-0.02437,-0.009267,left
-0.105164,0.753228,0.607438,0.039815,-0.028059,-0.021795,left
-0.104981,0.752496,0.608414,0.023683,-0.029003,-0.004891,left
-0.104615,0.752496,0.608414,0.018106,-0.017848,-0.004805,left
-0.105469,0.753411,0.60756,0.024455,-0.000429,-0.001802,left
-0.104249,0.753655,0.607133,0.024455,-0.030462,-0.007894,left
-0.104554,0.752679,0.607865,0.012614,-0.025742,-0.010726,left
-0.102724,0.756339,0.604327,0.039214,-0.035181,0.002574,left
-0.094794,0.847107,0.475617,0.049426,-0.03561,0.011842,left
-0.098942,0.845033,0.478606,0.041531,-0.000172,-0.003947,left
-0.098515,0.844423,0.481961,0.061439,-0.034581,-0.002231,left
-0.101443,0.837408,0.488122,0.022653,-0.018535,0.000257,left
-0.094977,0.838872,0.487878,0.074052,-0.012185,0.004462,left
-0.106201,0.824171,0.504897,0.003261,-0.001716,-0.017247,left
-0.098393,0.830576,0.5002,0.032779,-0.031663,0.00103,left
-0.099918,0.829539,0.501542,0.020337,-0.00103,-0.007294,left
-0.098637,0.829966,0.501298,0.022825,-0.023082,-0.007637,left
-0.096746,0.832406,0.499041,0.035696,-0.031148,-0.003861,left
-0.091195,0.828868,0.505507,0.030805,-0.028059,-0.00266,left
-0.0915,0.828685,0.505873,0.028231,-0.024799,-0.004462,left
-0.092476,0.827648,0.506971,0.022224,-0.021795,-0.004719,left
-0.091927,0.828258,0.505812,0.022396,-0.028403,-0.007894,left
-0.090951,0.828746,0.505385,0.026086,-0.023082,-0.002317,left
-0.091744,0.828136,0.505629,0,-0.043848,-0.004119,left
-0.090768,0.829295,0.504775,0.026858,-0.026515,-0.006007,left
-0.0915,0.829112,0.504775,0.02334,-0.020508,-0.008924,left
-0.09028,0.829051,0.505873,0.01862,-0.018363,-0.00738,left
-0.091012,0.8296,0.505141,0.025313,-0.019307,-0.00266,left
