acc_x,acc_y,acc_z,gyro_x,gyro_y,gyro_z,direction
0.460367,-0.008723,0.858819,0.049082,-0.094818,-0.004376,up
0.44896,-0.010919,0.860283,0.043333,-0.009267,-0.001716,up
0.451522,-0.008784,0.859612,-0.00532,-0.050627,0.012442,up
0.444141,0.002623,0.851926,-0.04668,-0.073109,-0.003347,up
0.435784,0.012627,0.863943,0.017333,0.016132,-0.006178,up
0.442616,0.015921,0.856196,0.026257,0.03235,0.018535,up
0.44713,0.012505,0.852719,0.068475,-0.016389,0.012871,up
0.44713,0.009211,0.856623,0.057749,-0.051914,-0.011584,up
0.443775,0.005429,0.862784,0.05569,-0.029604,-0.000515,up
0.442372,-0.004758,0.860283,0.042303,-0.038442,-0.009611,up
0.665998,-0.048922,0.687226,0.058264,-0.051571,-0.004462,up
0.657885,-0.053009,0.715896,0.026171,-0.054145,-0.007723,up
0.653005,-0.052582,0.718153,0.013987,-0.031577,-0.004634,up
0.648308,-0.051484,0.725351,0.029003,-0.023426,-0.002832,up
0.646356,-0.053253,0.724863,0.020337,-0.021624,-0.001888,up
0.646478,-0.051667,0.722057,0.01965,-0.034924,-0.007294,up
0.643977,-0.049715,0.726815,0.014073,-0.043848,-0.010898,up
0.64294,-0.049471,0.728645,0.035696,-0.038957,-0.002917,up
0.642818,-0.050325,0.72773,0.039386,-0.049769,0.021538,up
0.635498,-0.051789,0.732427,0.016218,-0.012614,-0.000944,up
0.711382,-0.039101,0.658068,0.038356,-0.05569,-0.020937,up
0.707356,-0.040016,0.66612,0.036297,-0.043162,-0.007208,up
0.706258,-0.040992,0.663985,0.034495,-0.027802,-0.004977,up
0.704855,-0.043859,0.661484,0.038528,-0.051571,0.000429,up
0.705221,-0.038979,0.670512,0.035353,-0.015703,-0.006264,up
0.705648,-0.04392,0.664717,0.029604,-0.024198,-0.006521,up
0.703574,-0.044713,0.668743,0.033551,-0.032006,-0.004548,up
0.702659,-0.044469,0.667706,0.027802,-0.017333,-0.004033,up
0.703025,-0.044896,0.667279,0.02334,-0.02763,-0.005148,up
0.702903,-0.045933,0.668804,0.027115,-0.032006,-0.001116,up
0.791841,-0.061183,0.555588,0.021195,-0.026429,-0.006178,up
0.792512,-0.060085,0.557906,0.037069,-0.034323,-0.006521,up
0.790865,-0.060817,0.558882,0.038013,-0.021967,-0.00798,up
0.789645,-0.060817,0.562725,0.026086,-0.023168,-0.005835,up
0.789462,-0.046909,0.561566,0.019736,-0.02334,0.001716,up
0.789157,-0.062342,0.562298,0.022053,-0.029175,0.021109,up
0.789645,-0.061366,0.564067,0.024541,-0.018106,-0.006521,up
0.78751,-0.060756,0.577731,0.025657,-0.040416,-0.00532,up
0.787571,-0.061549,0.564494,0.026772,-0.025228,-0.00532,up
0.787083,-0.060939,0.566019,0.040931,-0.039129,-0.011155,up
0.83448,-0.068747,0.494161,0.017162,-0.029003,-0.006693,up
0.832589,-0.074847,0.497943,0.048482,-0.029604,0,up
0.832894,-0.071919,0.499712,0.031749,-0.01802,-0.006007,up
0.832772,-0.071187,0.497211,0.022568,-0.017762,-0.004805,up
0.83082,-0.071248,0.495625,0.016132,-0.013386,-0.007208,up
0.832101,-0.073444,0.495503,0.019221,-0.021795,-0.005148,up
0.833565,-0.072285,0.498187,0.011584,-0.035696,0.003347,up
0.830881,-0.07198,0.493673,0.023511,-0.027802,0.001716,up
0.833382,-0.068869,0.497943,0.030119,-0.040587,0,up
0.831247,-0.068015,0.499956,0.03029,-0.020508,-0.001974,up
0.884683,-0.057096,0.396805,0.039558,-0.041016,-0.00738,up
0.8845,-0.059048,0.403149,0.034066,-0.044963,-0.000772,up
0.882182,-0.058743,0.403027,0.026686,-0.031663,-0.001373,up
0.882487,-0.060085,0.404857,0.022653,-0.030634,0.002746,up
0.883768,-0.058438,0.406138,0.043505,-0.020594,-0.004719,up
0.880657,-0.059902,0.401441,0.028145,-0.039815,-0.002746,up
0.881755,-0.057645,0.410286,0.032607,-0.017247,-0.003432,up
0.881023,-0.058926,0.406016,0.022825,-0.023683,-0.001201,up
0.88206,-0.05856,0.406382,0.025313,-0.025914,-0.000343,up
0.880474,-0.05856,0.406687,0.029003,-0.031835,-0.002917,up
0.783545,-0.040199,0.567056,0.036039,0.021967,-0.005578,up
0.790499,-0.045262,0.559919,0.019822,-0.026601,-0.00103,up
0.792085,-0.041114,0.564067,0.029775,-0.016475,-0.002317,up
0.793366,-0.041053,0.554185,0.023855,-0.019221,-0.009353,up
0.793915,-0.041724,0.559248,0.015703,-0.010983,-0.004205,up
0.794464,-0.040809,0.554734,0.0127,-0.009353,-0.001974,up
0.795989,-0.039162,0.554673,0.029346,0.001116,0.000257,up
0.797575,-0.040687,0.549976,0.016475,-0.021624,-0.000172,up
0.795989,-0.039772,0.553209,0.026601,-0.014073,-0.008667,up
0.797453,-0.037576,0.553575,0.025571,-0.040673,-0.003347,up
0.725107,-0.025254,0.645441,0.024455,-0.020422,0.000172,up
0.726693,-0.024339,0.645014,0.025828,-0.017848,-0.020422,up
0.726327,-0.022143,0.644221,0.033465,-0.022139,-0.003003,up
0.723826,-0.021533,0.64355,0.023683,-0.024112,-0.005835,up
0.727486,-0.022448,0.641537,0.028832,-0.024884,-0.002746,up
0.727425,-0.018056,0.645929,0.02969,-0.029261,-0.006178,up
0.726449,-0.020801,0.645624,0.023511,-0.016904,-0.00429,up
0.727486,-0.01952,0.643184,0.029518,-0.014931,-0.01167,up
0.727791,-0.0183,0.641232,0.028059,-0.017419,-0.006436,up
0.726754,-0.019581,0.642513,0.038099,-0.019736,-0.009439,up
0.613111,0.001952,0.754936,0.017419,-0.020508,-0.012528,up
0.614148,0.002501,0.753594,0.030204,-0.027888,-0.009267,up
0.613965,0.003904,0.752557,0.028488,-0.017505,-0.009439,up
0.612989,0.004148,0.755546,0.034838,-0.021195,-0.001888,up
0.614087,0.003538,0.75152,0.027973,-0.025742,-0.011155,up
0.612806,0.004453,0.753228,0.02128,-0.023168,-0.009868,up
0.611281,0.004209,0.75762,0.042132,-0.019822,-0.009096,up
0.611525,-0.000183,0.753289,0.023769,-0.044105,-0.004977,up
0.61,-0.000793,0.756522,0.019049,-0.021195,-0.003518,up
0.609085,-0.002013,0.7564,0.06101,-0.03029,-0.005749,up
0.50813,0.014213,0.827709,0.01862,-0.016561,-0.007294,up
0.509228,0.017995,0.82716,0.026171,-0.016132,-0.00695,up
0.511119,0.018666,0.824354,0.032435,-0.024284,-0.006865,up
0.511485,0.01647,0.825147,0.036468,-0.027802,-0.004119,up
0.511302,0,0.824415,0.037327,-0.018792,-0.003175,up
0.510631,0.01769,0.833016,0.064528,0.016818,-0.005921,up
0.517036,0.01037,0.815021,0.026515,-0.065643,-0.010812,up
0.514779,0.011041,0.823134,0.027287,-0.020165,-0.007465,up
0.511485,0.009943,0.830637,0.035353,0.004719,0.009611,up
0.519293,0.007991,0.81313,0.022139,-0.030119,-0.008152,up
0.333853,0.014823,0.905728,0.032521,-0.00532,-0.011241,up
0.338001,0.015006,0.914512,0.050455,-0.025313,-0.016218,up
0.340746,0.008845,0.916281,0.033465,-0.030119,-0.005063,up
0.341356,0.007259,0.912316,0.021881,-0.033551,-0.001888,up
0.339892,0.012932,0.917379,0.027544,-0.012185,-0.018277,up
0.342942,0.006405,0.907924,0.040158,-0.020594,0.010898,up
0.337574,0.009821,0.923052,0.014587,0.007036,-0.001974,up
0.341173,0.00732,0.914939,0.009525,-0.001802,-0.013214,up
0.343796,0.014152,0.912804,0.031492,-0.002403,-0.014502,up
0.347151,0.011895,0.911584,0.033551,-0.029604,-0.0133,up
0.227774,0.011834,0.953308,0.024713,-0.015016,-0.014587,up
0.230092,0.010187,0.951234,0.026515,-0.027888,-0.007122,up
0.228872,0.010004,0.954284,0.024799,-0.017247,-0.004634,up
0.230641,0.009272,0.9516,0.027802,-0.026086,-0.004462,up
0.23119,0.009699,0.951051,0.025828,-0.026686,-0.00798,up
0.228994,0.010248,0.956236,0.028145,-0.013129,-0.004634,up
0.230275,0.010736,0.952393,0.023511,-0.014244,-0.003089,up
0.232532,0.011285,0.949465,0.033122,-0.025142,-0.007637,up
0.23058,0.010919,0.953369,0.027201,-0.014502,-0.00532,up
0.230458,0.012444,0.953918,0.024884,-0.017762,-0.010726,up
0.239242,0.011712,0.950014,0.027287,-0.022653,-0.007208,up
0.23851,0.012139,0.951051,0.02763,-0.02437,-0.012871,up
0.239425,0.010309,0.94672,0.023511,-0.035782,-0.006178,up
0.236924,0.012261,0.952027,0.029003,-0.025399,-0.010469,up
0.237168,0.010065,0.951539,0.023597,-0.025828,-0.00738,up
0.235765,0.008662,0.951112,0.027459,-0.016647,-0.002574,up
0.23546,0.009882,0.952088,0.021366,-0.009525,-0.000772,up
0.24034,0.009455,0.945134,0.029432,-0.043848,-0.001974,up
0.239364,0.010309,0.951417,0.024026,-0.029604,-0.011927,up
0.236253,0.009455,0.952027,0.026686,-0.027544,-0.007894,up
0.216123,0.009882,0.953979,0.027544,-0.023769,-0.005921,up
0.217587,0.009699,0.954589,0.028574,-0.030548,-0.008838,up
0.216672,0.009211,0.955321,0.026944,-0.024541,-0.006092,up
0.217709,0.009394,0.954955,0.035439,-0.030204,-0.006865,up
0.216611,0.008723,0.954772,0.030119,-0.022139,-0.006178,up
0.21533,0.007686,0.954467,0.027459,-0.027802,-0.005921,up
0.215391,0.007198,0.950441,0.028059,-0.037327,-0.011069,up
0.214171,0.00671,0.954833,0.021452,-0.018792,-0.007122,up
0.214903,0.006649,0.95465,0.026515,-0.043162,-0.006178,up
0.215513,0.007442,0.954528,0.031406,-0.020079,-0.006865,up
0.456463,0.010553,0.860771,0.035439,-0.025657,-0.00738,up
0.451095,0.009577,0.870165,0.033208,-0.026429,-0.009267,up
0.451949,0.006405,0.857172,0.000515,-0.040416,-0.004376,up
0.44896,0.007869,0.866993,0.023426,-0.011927,-0.004462,up
0.449143,0.008723,0.864614,0.025056,-0.024884,-0.003861,up
0.447557,0.00854,0.867542,0.022053,-0.006607,-0.006007,up
0.449448,0.010004,0.864126,0.027716,-0.014587,-0.007208,up
0.449204,0.010065,0.866993,0.02763,-0.008581,-0.007551,up
0.450851,0.010004,0.862052,0.025828,-0.026686,-0.006436,up
0.452315,0.010614,0.857782,0.024026,-0.043419,-0.010125,up
0.606157,0.02928,0.759267,0.06101,-0.015789,0.015188,up
0.596641,0.020374,0.77226,0.11095,0.053716,0.017247,up
0.608109,0.019947,0.74786,0.029261,-0.033723,0.00635,up
0.60756,0.018666,0.757986,0.038356,-0.028488,-0.010383,up
0.608902,0.017934,0.750849,0.024713,-0.056204,-0.0133,up
0.603961,0,0.76128,0.025142,-0.048996,-0.015016,up
0.598105,0.014457,0.764696,0.053373,-0.06427,-0.013214,up
0.596946,0.011529,0.761036,0.054917,-0.069848,-0.008238,up
0.592493,0.010248,0.765428,0.032693,-0.023683,-0.013214,up
0.581696,0.006344,0.786656,0.022396,-0.027544,-0.019307,up
0.635437,0.012139,0.73871,0.025742,-0.030204,-0.003947,up
0.634339,0.011102,0.738771,0.027888,-0.030119,-0.008581,up
0.63257,0.012749,0.739686,0.028746,-0.019135,-0.006607,up
0.632936,0.011468,0.735721,0.024884,-0.027459,-0.007036,up
0.631838,0.011529,0.742797,0.025828,-0.019393,-0.005148,up
0.63318,0.011224,0.737185,0.026257,-0.029604,-0.00532,up
0.632936,0.011956,0.737917,0.018792,-0.022139,-0.005234,up
0.632875,0.010492,0.736087,0.024284,-0.031749,-0.005063,up
0.632692,0.011895,0.741028,0.031063,-0.013729,-0.005749,up
0.63379,0.01159,0.737368,0.024627,-0.000429,-0.006178,up
0.687104,0.013359,0.684298,0.026343,-0.027973,-0.005406,up
0.687043,0.015738,0.686067,0.031148,-0.025399,-0.009267,up
0.686189,0.013542,0.687836,0.025571,-0.026515,-0.002917,up
0.686128,0.013603,0.68869,0.027201,-0.026772,-0.004462,up
0.685335,0.015433,0.688324,0.031921,-0.025657,-0.012871,up
0.686128,0.012871,0.685213,0.000601,-0.034237,-0.003175,up
0.684908,0.01403,0.690032,0.02763,-0.016561,-0.005492,up
0.685518,0.015555,0.688812,0.028145,-0.02394,-0.008667,up
0.686677,0.014335,0.68381,0.010812,-0.006779,-0.008323,up
0.685518,0.012749,0.688324,0.026944,-0.018964,-0.008495,up
0.71248,0.015006,0.660142,0.025228,0.002059,-0.00635,up
0.715591,0.016653,0.660569,0.064442,0.017505,-0.009439,up
0.72224,0.012383,0.648369,0.031234,-0.013129,-0.005406,up
0.724009,0.01342,0.645563,0.029346,-0.02497,-0.006779,up
0.724741,0.01403,0.647332,0.025313,-0.029346,-0.006092,up
0.723643,0.013603,0.650626,0.033208,-0.019564,-0.007294,up
0.723826,0.012383,0.65087,0.025828,-0.012442,-0.005663,up
0.725839,0.014152,0.649284,0.023683,-0.035096,-0.012356,up
0.729194,0.016043,0.639341,0.067531,-0.071307,0.018535,up
0.733342,0.006588,0.67649,0.054231,-0.445259,0.004634,up
0.719739,-0.003965,0.653249,0.012099,-0.010125,-0.010383,up
0.716811,-0.008601,0.648552,0.021967,-0.031406,0.007122,up
0.715835,-0.006893,0.65087,0.035954,-0.028317,0.001459,up
0.721264,-0.009333,0.660386,0.026343,-0.016561,-0.003089,up
0.717726,-0.006893,0.660874,0.022224,0.003089,0.021624,up
0.720715,-0.01098,0.649162,0.014073,-0.035439,0.01004,up
0.719312,-0.00244,0.657702,-0.001545,0.014502,-0.00738,up
0.725534,0.001525,0.64538,0.025313,-0.014244,-0.013987,up
0.723094,0.000305,0.644587,-0.006092,0.03561,0.021795,up
0.731146,0.004819,0.642818,0.026772,0.050884,-0.001287,up
0.808128,-0.003599,0.534482,0.025056,0.031148,-0.010469,up
0.815387,-0.003721,0.524234,0.020251,-0.014673,-0.005063,up
0.817705,-0.003355,0.521733,0.026343,-0.032264,-0.003947,up
0.817095,-0.002684,0.524661,0.031492,-0.025657,-0.003432,up
0.817217,-0.003904,0.526125,0.035267,-0.043934,-0.005406,up
0.817827,-0.003782,0.520513,0.027544,-0.031234,-0.005749,up
0.816424,-0.003721,0.524417,0.02763,-0.000772,-0.004634,up
0.81618,-0.005429,0.522587,0.027115,-0.030033,-0.00369,up
0.817522,-0.005185,0.527589,0.029518,-0.013987,-0.003861,up
0.81801,-0.004392,0.524539,0.026429,-0.013214,-0.004548,up
0.849791,-0.015067,0.470005,0.025313,-0.016218,-0.005063,up
0.84912,-0.017995,0.467809,0.025056,-0.008238,-0.009525,up
0.851316,-0.017263,0.468846,0.033637,-0.009267,-0.011756,up
0.852536,-0.018361,0.467992,0.027973,-0.012614,-0.004891,up
0.852719,-0.019337,0.465308,0.029604,-0.026944,-0.008323,up
0.853817,-0.018605,0.465979,0.025056,-0.017076,-0.004376,up
0.855037,-0.017751,0.462136,0.032607,-0.022396,-0.009696,up
0.854305,-0.016836,0.463295,0.031148,-0.029089,-0.007208,up
0.853085,-0.021167,0.467016,0.030204,-0.014158,-0.021624,up
0.855342,-0.017141,0.461343,0.03132,-0.02437,-0.004205,up
0.756522,-0.010797,0.600545,0.033294,-0.045049,-0.001545,up
0.754875,-0.006649,0.612074,0.036125,-0.021195,-0.006779,up
0.755241,-0.007442,0.608048,0.033808,-0.033723,-0.010125,up
0.753899,-0.012261,0.610122,0.023168,-0.035267,-0.00798,up
0.754021,-0.011895,0.610976,0.024455,-0.02231,-0.003861,up
0.754631,-0.009516,0.61061,0.035267,-0.028231,0.00103,up
0.754021,-0.01037,0.614026,0.027888,-0.025399,-0.003432,up
0.75274,-0.010675,0.610854,0.037155,-0.029432,-0.003175,up
0.752984,-0.009577,0.613355,0.03398,-0.02437,-0.009353,up
0.751947,-0.012627,0.610671,0.028488,-0.033122,-0.003604,up
0.673928,-0.00549,0.701622,0.037927,-0.008752,-0.002145,up
0.675453,-0.007259,0.695583,0.035525,-0.023683,-0.002059,up
0.676551,-0.008601,0.697657,0.039729,-0.022911,0.000944,up
0.677161,-0.008967,0.694119,0.030119,-0.025914,-0.004205,up
0.677405,-0.006771,0.696315,0.031749,-0.00103,-0.005749,up
0.677405,-0.007869,0.69662,0.030204,-0.020079,-0.00429,up
0.678259,-0.00732,0.697047,0.020594,-0.027201,-0.005921,up
0.678015,-0.008113,0.697535,0.028145,-0.021624,-0.013729,up
0.678137,-0.008601,0.694241,0.024541,-0.030119,-0.005749,up
0.677954,-0.005917,0.69784,0.039129,-0.018706,-0.008924,up
0.6161,-0.00671,0.75091,0.028059,-0.02231,-0.003175,up
0.61671,-0.009943,0.748165,0.031234,-0.031492,-0.003347,up
0.615063,-0.005612,0.755363,0.026257,-0.018878,-0.008238,up
0.615063,-0.007381,0.746396,0.035525,-0.033379,-0.00532,up
0.613416,-0.008113,0.752679,0.03029,-0.016132,-0.002317,up
0.616161,-0.013359,0.751825,0.028917,-0.024112,-0.005578,up
0.61305,-0.007198,0.750483,0.022053,-0.015102,-0.003261,up
0.615124,-0.00915,0.747616,0.021109,-0.029432,-0.003261,up
0.615124,-0.008662,0.753289,0.028574,-0.01862,-0.005749,up
0.615063,-0.008296,0.751032,0.023769,-0.022568,-0.008838,up
0.55205,-0.007747,0.800015,0.021624,-0.017591,-0.004805,up
0.552477,-0.006771,0.802028,0.019736,-0.013558,-0.006607,up
0.554551,-0.006771,0.796965,0.026429,-0.030891,-0.006865,up
0.552477,-0.007503,0.800869,0.024026,-0.02394,-0.001888,up
0.553209,-0.005795,0.79849,0.035696,-0.024713,-0.004548,up
0.552233,-0.006161,0.799039,0.028059,-0.021366,-0.008838,up
0.552172,-0.00793,0.79971,0.031148,-0.029089,-0.004977,up
0.55266,-0.005368,0.799039,0.038699,-0.020766,-0.002317,up
0.551562,-0.008601,0.801784,0.021538,-0.024627,-0.008838,up
0.551257,-0.008601,0.801357,0.014587,-0.016304,-0.00738,up
0.498248,0.00549,0.834663,0.033208,-0.042818,-0.012185,up
0.498187,0.00671,0.8357,0.010469,-0.00695,-0.009525,up
0.497638,0.005124,0.8357,0.029432,-0.020594,-0.00695,up
0.499468,0.004819,0.83387,0.035696,-0.015188,-0.001888,up
0.504226,0.008784,0.831308,0.045564,-0.029432,-0.007894,up
0.497211,-0.001037,0.837652,0.018191,-0.014673,-0.010726,up
0.499773,-0.001586,0.830942,0.020766,-0.028231,-0.010297,up
0.503311,0.001891,0.831979,0.022911,-0.033036,-0.008752,up
0.500749,0.001159,0.832467,0.017076,-0.028746,-0.005063,up
0.49898,0.003721,0.836127,0.025313,-0.019393,-0.007208,up
0.432002,0.007137,0.871873,0.032607,-0.016561,-0.004891,up
0.432429,0.00671,0.872056,0.02969,-0.019908,-0.00738,up
0.432429,0.004514,0.870409,0.026944,-0.01596,-0.003947,up
0.433344,0.00549,0.87108,0.028145,-0.020422,-0.008752,up
0.433649,0.00488,0.871751,0.030119,-0.024112,-0.00695,up
0.434442,0.004453,0.866383,0.028145,-0.025571,-0.006007,up
0.434503,0.005551,0.873398,0.042132,-0.000257,-0.003861,up
0.432978,0.005429,0.872788,0.026686,-0.017419,-0.008238,up
0.434381,0.003721,0.868762,0.028832,-0.019221,-0.006779,up
0.434991,0.006222,0.871141,0.033294,-0.013644,-0.008581,up
0.620553,0.008235,0.748104,0.043848,-0.03501,-0.010469,up
0.620126,0.007808,0.748775,0.03235,-0.042904,-0.012271,up
0.616527,0.004453,0.749568,0.054488,-0.048739,-0.010211,up
0.61549,0.007015,0.756705,0.019307,-0.014502,-0.011069,up
0.617259,0.006954,0.752984,0.03664,-0.022997,-0.020851,up
0.614697,0.000244,0.751337,0.018449,-0.002917,0.001287,up
0.61976,0.003538,0.742126,0.017076,-0.029003,-0.004119,up
0.617381,0.007869,0.752191,0.046422,-0.042732,-0.005148,up
0.615307,0.006527,0.754631,0.016475,0.013214,0.003089,up
0.618784,0.005429,0.752435,0.005921,0.007809,-0.007208,up
0.690764,0.011712,0.684725,0.036383,-0.008152,-0.009439,up
0.690459,0.010126,0.681004,0.033894,-0.02763,-0.007551,up
0.689178,0.010126,0.682956,0.032865,-0.016647,-0.015531,up
0.689422,0.007869,0.68076,0.034495,-0.031234,-0.012957,up
0.690215,0.008357,0.686616,0.032264,-0.022482,-0.009096,up
0.690032,0.009638,0.680272,0.027459,-0.02497,-0.00738,up
0.690215,0.010065,0.682834,0.024713,-0.021452,-0.00738,up
0.690703,0.006771,0.677161,0.016561,-0.038356,0.003861,up
0.687409,0.00976,0.689178,0.015703,-0.020937,-0.006092,up
0.688141,0.01037,0.684359,0.030548,-0.025313,-0.009353,up
0.753777,0.002928,0.60573,0.027544,-0.03029,-0.005406,up
0.754753,0.002501,0.611891,0.018792,-0.035096,-0.016904,up
0.756156,0.003477,0.611464,0.01862,-0.017162,-0.007465,up
0.752862,0.003782,0.609085,0.028488,-0.026171,-0.010469,up
0.755302,0.003294,0.61122,0.023168,-0.023597,-0.010297,up
0.759511,0.00488,0.610915,0.021109,-0.02394,-0.007809,up
0.754936,0.002379,0.610427,0.038013,-0.036554,-0.007465,up
0.751947,0.003965,0.613111,0.018449,-0.032607,-0.012356,up
0.751886,0.002135,0.614575,0.028574,-0.026515,-0.010726,up
0.755729,0.000915,0.611342,0.025571,-0.023254,-0.006865,up
0.809836,-0.000732,0.533689,0.026086,-0.029775,-0.00429,up
0.809409,0.000244,0.53558,0.037241,-0.030204,-0.004891,up
0.808921,0.000366,0.535763,0.020422,-0.021195,-0.004376,up
0.808006,-0.000549,0.537532,0.043848,-0.000086,-0.006436,up
0.807213,0.000183,0.538752,0.029861,-0.043247,-0.007294,up
0.809165,0.001891,0.535763,0.030119,-0.019307,-0.009868,up
0.807396,-0.001098,0.538813,0.027459,-0.02497,-0.006693,up
0.808738,-0.001464,0.539911,0.017333,-0.011842,-0.007637,up
0.808433,-0.000061,0.536739,0.026257,-0.025142,-0.009181,up
0.807945,-0.001647,0.535458,0.024884,-0.034066,-0.007294,up
0.861381,-0.01281,0.450668,0.029261,-0.031406,-0.003604,up
0.865102,-0.012383,0.450729,0.044706,-0.016304,-0.013386,up
0.864431,-0.01098,0.451644,0.034409,-0.021023,-0.011842,up
0.861808,-0.010126,0.455304,0.037327,-0.00163,-0.012185,up
0.85888,-0.013969,0.454877,0.024799,-0.022568,-0.0133,up
0.856989,-0.013847,0.451156,0.015188,-0.031492,-0.003003,up
0.858148,-0.013725,0.454938,0.025056,-0.028917,-0.005835,up
0.857843,-0.014091,0.456585,0.022653,-0.029518,-0.006521,up
0.857294,-0.014701,0.457134,0.02128,-0.019307,-0.00369,up
0.856867,-0.013847,0.454328,0.016647,-0.033379,-0.007208,up
0.850035,-0.010065,0.469151,0.025399,-0.040416,-0.006092,up
0.850462,-0.008601,0.470371,0.013043,-0.050627,-0.006264,up
0.846497,-0.007015,0.477081,0.01064,-0.124593,0,up
0.834785,-0.002379,0.495015,0.040158,-0.110693,-0.003776,up
0.823073,-0.003355,0.513559,0.048739,-0.100739,-0.003604,up
0.814289,-0.005856,0.526003,0.048053,-0.088554,-0.005063,up
0.807884,-0.00732,0.5368,0.035181,-0.043934,-0.0133,up
0.806908,-0.008052,0.538142,0.030634,-0.019135,-0.004977,up
0.808738,-0.008845,0.537227,0.02497,-0.021624,-0.004205,up
0.808799,-0.008418,0.537959,0.026515,-0.018277,-0.005749,up
0.805993,-0.007869,0.541924,0.028488,-0.02394,-0.006007,up
0.805505,-0.006527,0.540826,0.032607,-0.024713,-0.007036,up
0.806542,-0.007625,0.54046,0.038185,-0.02703,-0.004719,up
0.806603,-0.008357,0.54168,0.028746,-0.02703,-0.007208,up
0.805993,-0.008174,0.540948,0.029604,-0.023511,-0.001974,up
0.805322,-0.008845,0.541009,0.026086,-0.024284,-0.006521,up
0.805993,-0.008601,0.542473,0.031148,-0.023597,-0.007723,up
0.805078,-0.010126,0.543388,0.025914,-0.027459,-0.005492,up
0.80459,-0.011224,0.543022,0.019307,-0.026257,-0.002145,up
0.804712,-0.009577,0.543693,0.031663,-0.027544,-0.004977,up
0.748165,-0.012078,0.619516,0.057234,0.002145,-0.001716,up
0.753838,-0.028243,0.610854,0.017848,-0.047881,-0.014158,up
0.750544,-0.018971,0.621895,0.03132,-0.020079,-0.012785,up
0.752313,-0.023058,0.614575,0.026858,-0.025571,-0.012013,up
0.751032,-0.023546,0.613904,0.021452,-0.019049,-0.007122,up
0.7503,-0.025498,0.613721,0.015617,-0.020337,-0.004977,up
0.749324,-0.023119,0.6161,0.031492,-0.043934,-0.006693,up
0.751215,-0.022875,0.613477,0.030634,-0.028917,-0.002917,up
0.751215,-0.021472,0.613538,0.026944,-0.017591,-0.002746,up
0.750666,-0.020313,0.616405,0.032092,-0.01965,-0.006607,up
0.741028,-0.02135,0.631167,0.029089,-0.018277,-0.004548,up
0.741882,-0.023851,0.62891,0.02437,-0.022653,-0.005492,up
0.740845,-0.022753,0.63013,0.019822,-0.01965,-0.004634,up
0.741516,-0.021716,0.629764,0.022139,-0.01596,-0.006178,up
0.743651,-0.02013,0.627141,0.037841,-0.030033,-0.004977,up
0.742797,-0.023485,0.628361,0.031148,-0.037241,-0.007294,up
0.741638,-0.024461,0.625921,0.009181,-0.033551,-0.011927,up
0.738893,-0.022997,0.637633,0.033637,-0.029432,-0.007122,up
0.740052,-0.023363,0.631045,0.030634,-0.030376,-0.00532,up
0.738405,-0.021777,0.632997,0.034066,-0.022997,-0.007465,up
0.618601,0.00122,0.751276,0.043676,-0.010297,-0.004033,up
0.620187,0.000366,0.748592,0.025228,-0.027888,-0.00798,up
0.620858,0.001647,0.747128,0.021366,-0.028746,-0.011327,up
0.621834,0.000915,0.749141,0.029003,-0.029947,-0.005835,up
0.62098,0.003416,0.747372,0.024884,-0.018792,-0.005234,up
0.621956,0.002684,0.745725,0.027802,-0.017247,-0.004977,up
0.622139,0.001098,0.74847,0.019135,-0.030548,-0.012185,up
0.620797,0.001647,0.749385,0.023168,-0.026858,-0.00901,up
0.622261,0.003294,0.744932,0.035353,-0.029003,-0.005578,up
0.621712,0.00427,0.746884,0.035267,-0.024112,-0.003861,up
0.565348,0.008784,0.787449,0.013214,-0.023168,-0.003947,up
0.565531,0.012444,0.784948,0.034323,-0.013901,0.021709,up
0.563701,0.009882,0.789584,0.018277,-0.015274,0.000686,up
0.566263,0.011041,0.787144,0.016389,-0.026171,-0.003089,up
0.567178,0.013237,0.786656,0.018792,-0.02763,-0.005148,up
0.565592,0.011651,0.789645,0.016818,-0.027716,-0.008752,up
0.564189,0.013237,0.790438,0.043676,-0.019478,-0.005148,up
0.565409,0.012749,0.791719,0.027287,-0.021881,-0.007723,up
0.566141,0.012871,0.78873,0.028403,-0.01862,-0.005921,up
0.566446,0.013542,0.788364,0.026686,-0.0133,-0.006865,up
0.502335,0.023363,0.833321,0.029861,0.002746,-0.004462,up
0.505202,0.02379,0.829234,0.034838,-0.016647,-0.000515,up
0.505873,0.022875,0.833138,0.030634,-0.019822,-0.007294,up
0.507093,0.022021,0.831064,0.022997,-0.018706,-0.006607,up
0.509777,0.022387,0.826794,0.001201,-0.02231,-0.007894,up
0.509289,0.022631,0.830088,0.021967,-0.017848,-0.005921,up
0.510692,0.022875,0.829478,0.026086,-0.012528,-0.004719,up
0.510631,0.022753,0.826184,0.024627,-0.027459,-0.006779,up
0.5124,0.023607,0.824659,0.02969,-0.028832,-0.008581,up
0.510631,0.023241,0.829295,0.030634,-0.023426,-0.008238,up
0.51911,0.015921,0.818986,0.027973,-0.035868,-0.007637,up
0.517585,0.019947,0.821182,0.023254,-0.020594,-0.007208,up
0.517341,0.019459,0.822585,0.043076,-0.026858,-0.004462,up
0.517524,0.020923,0.823622,0.029261,-0.023254,-0.010211,up
0.516792,0.019825,0.822219,0.036812,-0.035525,-0.008409,up
0.516121,0.020984,0.822585,0.022568,-0.009096,-0.003861,up
0.516365,0.017873,0.81984,0.019135,-0.026515,-0.005063,up
0.5185,0.021167,0.822951,0.027115,-0.022911,-0.00695,up
0.514962,0.021777,0.825574,0.028231,-0.020937,-0.008066,up
0.51667,0.018117,0.821365,0.017247,-0.027373,-0.002832,up
0.668926,-0.003111,0.705221,0.025914,-0.019564,-0.006693,up
0.670085,-0.003477,0.704245,0.027716,-0.031835,-0.005663,up
0.667584,-0.003843,0.705465,0.026944,-0.028917,-0.003861,up
0.665266,-0.003355,0.706197,0.024541,-0.01536,-0.001802,up
0.668926,-0.003416,0.704733,0.027544,-0.021452,-0.005921,up
0.668682,-0.003416,0.706319,0.024713,-0.028145,-0.008581,up
0.667157,-0.004087,0.704306,0.022911,-0.030634,-0.008238,up
0.665815,-0.003904,0.705343,0.025914,-0.025056,-0.007551,up
0.665815,-0.003843,0.704855,0.027888,-0.02703,-0.004805,up
0.665266,-0.003355,0.709186,0.029175,-0.018449,-0.006436,up
0.667279,-0.00427,0.704611,0.02763,-0.023511,-0.005921,up
0.66856,-0.001586,0.706197,0.031663,-0.018878,-0.007465,up
0.66795,-0.005795,0.708942,0.021881,-0.01596,-0.008752,up
0.668743,-0.002928,0.718153,0.027459,-0.022739,-0.006007,up
0.667645,-0.006161,0.706746,0.025142,-0.01596,-0.005148,up
0.669719,-0.004514,0.702415,0.027115,-0.027459,-0.006092,up
0.668499,-0.004941,0.702903,0.026,-0.031492,-0.007809,up
0.668865,-0.004148,0.704611,0.033208,-0.029861,-0.005578,up
0.668926,-0.003172,0.707966,0.03029,-0.021452,-0.008667,up
0.667889,-0.001891,0.705709,0.030719,-0.001888,-0.004033,up
0.750605,-0.008845,0.612867,0.021452,-0.045135,-0.007551,up
0.751459,-0.007564,0.61671,0.025571,-0.02703,-0.012957,up
0.749263,-0.00732,0.61488,0.025657,-0.029089,-0.008667,up
0.750056,-0.008113,0.615551,0.017676,-0.022653,-0.007122,up
0.749934,-0.00549,0.616161,0.02068,-0.019221,-0.006693,up
0.750422,-0.00488,0.615124,0.022224,-0.019049,-0.006264,up
0.750544,-0.006466,0.613904,0.020079,-0.043247,-0.005663,up
0.749934,-0.005063,0.612806,0.025828,-0.043505,-0.004548,up
0.752252,-0.003721,0.61427,0.01536,-0.018706,-0.011927,up
0.750239,-0.006344,0.61305,0.020851,-0.023597,-0.006092,up
0.747799,-0.003843,0.619455,0.024884,-0.020251,-0.007465,up
0.7503,-0.005246,0.618601,0.031406,-0.01862,-0.00738,up
0.748043,-0.005002,0.613599,0.002403,-0.027716,-0.00429,up
0.749446,-0.005856,0.617381,0.022911,-0.023511,-0.003947,up
0.748714,-0.005307,0.619455,0.025313,-0.016475,-0.00635,up
0.747494,-0.005612,0.616954,0.023855,-0.026,-0.003604,up
0.748531,-0.006893,0.619089,0.019736,-0.016046,-0.006007,up
0.748226,-0.004941,0.62037,0.026343,-0.000172,-0.007809,up
0.749324,-0.005063,0.616466,0.029947,-0.022825,-0.012185,up
0.748836,-0.004697,0.619577,0.020337,-0.016818,-0.006436,up
0.839604,-0.011163,0.488305,0.026257,-0.017591,-0.005835,up
0.838933,-0.011468,0.484462,0.026686,-0.030548,-0.007036,up
0.839177,-0.011285,0.491233,0.030891,-0.029775,-0.006865,up
0.837957,-0.012078,0.491538,0.02334,-0.017676,-0.004891,up
0.838933,-0.011407,0.490257,0.030548,-0.026343,-0.006779,up
0.838445,-0.012932,0.4941,0.03029,-0.043762,-0.008066,up
0.83692,-0.012688,0.489891,0.024884,-0.01699,-0.006521,up
0.839726,-0.012261,0.493124,0.028488,-0.01802,-0.005921,up
0.838567,-0.013054,0.490318,0.026772,-0.021366,-0.00635,up
0.839055,-0.01281,0.487207,0.000257,-0.031063,-0.005835,up
0.680211,-0.013115,0.69601,0.015016,-0.034066,-0.013043,up
0.679418,-0.011895,0.693631,0.024026,-0.043162,-0.008838,up
0.679723,-0.011773,0.696315,0.024627,-0.019736,-0.012528,up
0.684786,-0.006283,0.691191,0.05732,-0.033294,-0.003518,up
0.675148,-0.020435,0.695522,0.002317,-0.015188,-0.007036,up
0.677954,-0.01769,0.689971,0.019822,-0.019908,-0.003947,up
0.682346,-0.008357,0.69479,0.048482,-0.00266,-0.013043,up
0.682468,-0.013115,0.693814,0.046422,-0.029861,-0.008323,up
0.682102,-0.016287,0.696193,0.024541,-0.000086,-0.007894,up
0.682407,-0.0183,0.694363,0.022653,-0.043591,-0.011155,up
0.681492,-0.015433,0.696315,0.032865,-0.025399,-0.00635,up
0.681431,-0.016165,0.692289,0.030033,-0.025914,-0.004805,up
0.681187,-0.014884,0.693692,0.033808,-0.019908,-0.001459,up
0.681919,-0.015616,0.692106,0.031148,-0.030119,-0.003432,up
0.680943,-0.015311,0.696254,0.032092,-0.001459,-0.00695,up
0.680272,-0.015128,0.693692,0.029604,-0.03132,-0.009353,up
0.679784,-0.015494,0.694119,0.031234,-0.027544,-0.008409,up
0.678747,-0.014396,0.69845,0.033122,-0.019564,-0.008066,up
0.679296,-0.015982,0.688873,0.014759,-0.030719,-0.005492,up
0.677039,-0.01769,0.699182,0.038442,-0.049168,-0.015274,up
0.528687,-0.007625,0.816485,0.022825,-0.050284,-0.011327,up
0.523624,-0.005795,0.818803,0.035181,-0.012442,-0.00695,up
0.52521,-0.005856,0.819047,0.033208,-0.000172,-0.008495,up
0.530395,-0.007564,0.813191,0.02969,-0.003432,-0.004376,up
0.531432,-0.008296,0.817034,0.02128,-0.017505,-0.008752,up
0.533567,-0.00854,0.796477,0.026171,-0.024627,-0.011412,up
0.533933,-0.00671,0.812642,0.030204,0.005234,0.000515,up
0.534543,-0.011163,0.810629,0.025742,-0.036468,-0.015617,up
0.538996,-0.008662,0.810568,0.028403,-0.018363,-0.008238,up
0.536007,-0.010614,0.809531,0.029861,-0.042904,-0.004205,up
0.680699,-0.023424,0.698511,0.028574,-0.019908,-0.007465,up
0.681248,-0.024522,0.696559,0.029775,-0.023855,-0.00532,up
0.682041,-0.024339,0.695095,0.027973,-0.026,-0.006779,up
0.681248,-0.023729,0.696986,0.019908,-0.020165,-0.006436,up
0.682407,-0.023729,0.696681,0.019478,-0.05569,-0.004376,up
0.681004,-0.022448,0.696254,0.012957,-0.013901,0.001373,up
0.681553,-0.021655,0.695156,0.022911,-0.025485,0.002488,up
0.683261,-0.017263,0.691618,0.044963,-0.031492,-0.011069,up
0.6771,-0.025986,0.703879,0.000429,-0.016218,-0.010211,up
0.68137,-0.024522,0.692228,0.004634,-0.053544,-0.017505,up
0.68381,-0.014701,0.698816,0.015188,-0.018106,-0.008238,up
0.683078,-0.01891,0.671549,0.030376,-0.025571,-0.010297,up
0.684359,-0.014335,0.689849,0.033551,-0.001116,-0.00798,up
0.685091,-0.015067,0.689361,0.042218,-0.019307,-0.008581,up
0.682346,-0.013481,0.691069,0.039129,-0.001545,-0.007637,up
0.6893,-0.015555,0.680943,0.022911,-0.026,-0.011327,up
0.68808,-0.015616,0.692045,0.016733,-0.006607,-0.009868,up
0.688507,-0.016714,0.682224,0.01965,-0.022396,-0.009954,up
0.689788,-0.016348,0.682285,0.025828,-0.018277,-0.00695,up
0.689849,-0.014823,0.685152,0.021967,-0.016132,-0.009611,up
0.342515,0.002562,0.915244,0.033208,-0.0127,-0.003089,up
0.344467,0.001952,0.912194,0.025657,-0.011412,-0.005835,up
0.346846,0.002989,0.91134,0.033723,-0.017676,-0.004376,up
0.347029,0.002562,0.911889,0.035267,-0.017076,-0.004977,up
0.345931,0.000793,0.91134,0.029261,0.000429,-0.006007,up
0.350811,0.000122,0.911767,0.01965,-0.021452,-0.007637,up
0.352275,0.000244,0.909632,0.025485,-0.000429,-0.006436,up
0.351482,0.000549,0.912011,0.029175,-0.015016,-0.003518,up
0.352092,0.000305,0.910242,0.030204,-0.000944,-0.007294,up
0.353617,-0.000488,0.909266,0.023168,-0.028574,-0.007294,up
0.592249,-0.024827,0.77165,0.028145,-0.025914,-0.00532,up
0.592371,-0.024766,0.771894,0.023082,-0.025485,-0.007122,up
0.59231,-0.024827,0.769759,0.027373,-0.023855,-0.003604,up
0.590541,-0.027572,0.775615,0.029003,-0.025142,-0.007122,up
0.591456,-0.025498,0.775798,0.023168,-0.024026,-0.007208,up
0.591761,-0.022997,0.770308,0.025399,-0.023511,-0.004462,up
0.591212,-0.025864,0.773541,0.020851,-0.02763,-0.009696,up
0.590968,-0.023851,0.770674,0.027716,-0.030033,-0.009267,up
0.589199,-0.022997,0.774944,0.026772,-0.021624,-0.007637,up
0.58987,-0.022631,0.774639,0.027802,-0.025571,-0.007723,up
0.766892,-0.022814,0.597739,0.02969,-0.039214,-0.013558,up
0.76494,-0.023119,0.599142,0.041617,-0.022139,-0.009439,up
0.762195,-0.02501,0.602924,0.029175,-0.026772,-0.013472,up
0.761341,-0.027816,0.605303,0.025313,-0.028403,-0.008066,up
0.760243,-0.028609,0.603107,0.027802,-0.031492,-0.006693,up
0.759511,-0.027328,0.607377,0.034323,-0.031921,-0.007208,up
0.758291,-0.028304,0.608719,0.025313,-0.023769,-0.007122,up
0.757681,-0.028975,0.604327,0.029261,-0.032693,-0.006264,up
0.757864,-0.027389,0.607926,0.030033,-0.03235,-0.009611,up
0.757498,-0.02806,0.624579,0.027115,-0.025485,-0.008323,up
0.824781,-0.038491,0.514596,0.032865,-0.031749,-0.010983,up
0.825208,-0.038979,0.516792,0.023683,-0.031835,-0.004719,up
0.821792,-0.037271,0.513376,0.026257,-0.039815,-0.008152,up
0.820938,-0.038064,0.52155,0.032435,-0.025742,-0.007465,up
0.821426,-0.039101,0.519537,0.02497,-0.027459,-0.003861,up
0.820877,-0.039345,0.518927,0.027973,-0.028059,-0.005148,up
0.820816,-0.038613,0.522892,0.014845,-0.022482,-0.003003,up
0.820877,-0.035441,0.516731,0.041874,-0.040587,-0.006436,up
0.820572,-0.036478,0.522526,0.029861,-0.01965,-0.010211,up
0.820145,-0.036539,0.517646,0.027973,-0.034409,-0.009954,up
0.682773,-0.039589,0.692594,0.025313,-0.022053,-0.002059,up
0.68259,-0.040199,0.692289,0.020337,-0.021795,-0.012099,up
0.683505,-0.040199,0.693204,0.000429,-0.020937,-0.005492,up
0.683261,-0.040443,0.691069,0.016904,-0.01536,-0.007894,up
0.683505,-0.03843,0.692533,0.027973,-0.028832,-0.005921,up
0.684115,-0.038552,0.694607,0.029003,-0.023683,-0.006779,up
0.683505,-0.038979,0.693387,0.023597,-0.020766,-0.007036,up
0.682956,-0.039467,0.692167,0.008838,-0.043762,-0.010211,up
0.683627,-0.036905,0.697474,0.026601,-0.021795,-0.009611,up
0.682712,-0.038064,0.690825,0.031749,-0.029947,-0.004805,up
0.579744,-0.046177,0.782203,0.026772,-0.025571,-0.005148,up
0.580049,-0.046482,0.780556,0.026858,-0.016561,-0.005492,up
0.579866,-0.046299,0.781532,0.031749,-0.043591,-0.004205,up
0.579805,-0.047214,0.779031,0.030805,-0.024627,-0.003518,up
0.579439,-0.045933,0.785192,0.035439,-0.017419,-0.005663,up
0.581086,-0.046299,0.777628,0.029432,-0.030033,-0.005921,up
0.580598,-0.046116,0.779824,0.02969,-0.02497,-0.004119,up
0.581269,-0.046726,0.781288,0.024455,-0.029947,-0.00738,up
0.579561,-0.045872,0.781471,0.024112,-0.025228,-0.005148,up
0.580903,-0.045445,0.783301,0.021195,-0.029432,-0.008838,up
0.496845,-0.033001,0.838018,0.027459,-0.023683,-0.021967,up
0.496906,-0.031598,0.839238,0.027802,-0.027716,-0.00798,up
0.498004,-0.031415,0.836676,0.022139,-0.031234,-0.002403,up
0.496174,-0.030012,0.838872,0.028145,-0.029003,-0.003261,up
0.496296,-0.028792,0.838079,0.030462,-0.022997,-0.004977,up
0.495808,-0.030866,0.84302,0.02703,-0.043419,-0.007809,up
0.494893,-0.030866,0.835517,0.033294,-0.043419,-0.003347,up
0.493185,-0.030866,0.839482,0.035868,-0.02394,-0.005234,up
0.496418,-0.030012,0.840336,0.030462,-0.026,-0.003518,up
0.495869,-0.032574,0.84424,0.016818,-0.003518,-0.008066,up
0.459269,-0.026291,0.86376,0.026944,-0.03132,-0.008152,up
0.45506,-0.030378,0.863028,0.026858,-0.052515,-0.010898,up
0.450912,-0.031842,0.865956,0.025485,-0.071564,-0.013729,up
0.441335,-0.028243,0.869311,0.013214,-0.060838,-0.003175,up
0.435967,-0.028914,0.871263,0.034495,-0.020422,-0.005749,up
0.436333,-0.030195,0.871507,0.027459,-0.022739,-0.008752,up
0.437614,-0.030988,0.872605,0.021195,-0.022911,-0.000172,up
0.435601,-0.030622,0.871873,0.026171,-0.016904,-0.003089,up
0.435845,-0.028609,0.872483,0.029518,-0.016046,-0.00532,up
0.436638,-0.029585,0.873154,0.028403,-0.02394,-0.010383,up
0.676978,-0.002928,0.694729,0.019478,-0.034152,-0.007723,up
0.673257,-0.00549,0.69784,0.011327,-0.011412,-0.003518,up
0.672342,-0.01037,0.690703,-0.003347,-0.012356,0.001716,up
0.670695,0.007137,0.708515,0.038957,0.016046,-0.008152,up
0.673867,-0.004087,0.698816,0.034838,-0.021366,0.021195,up
0.676124,-0.00488,0.693692,0.017505,-0.002403,-0.021795,up
0.682163,0.007076,0.696986,0.042475,-0.004805,-0.007637,up
0.682102,0.002501,0.689056,0.04196,-0.080402,0.015188,up
0.689727,0.008479,0.688629,-0.002317,0.009696,-0.012442,up
0.689605,-0.000488,0.672525,-0.007551,-0.018706,-0.000858,up
0.782691,-0.00305,0.575474,0.035868,-0.024713,-0.007465,up
0.782325,-0.003904,0.575474,0.027373,-0.031921,-0.007465,up
0.782203,-0.002684,0.575169,0.034581,-0.026686,-0.007208,up
0.78141,-0.002562,0.577182,0.02068,-0.016904,-0.006092,up
0.781654,-0.003294,0.575657,0.018964,-0.000086,-0.004977,up
0.780007,-0.004087,0.575718,0.023082,-0.021023,-0.004462,up
0.781959,-0.003355,0.578646,0.02497,-0.027373,-0.002317,up
0.77958,-0.003904,0.57828,0.024713,-0.021967,-0.001459,up
0.778238,-0.003294,0.578219,0.026686,-0.017076,-0.003089,up
0.780617,-0.002318,0.578402,0.034152,-0.024112,-0.004205,up
0.783728,-0.007198,0.571875,0.032521,-0.024284,-0.005921,up
0.782386,-0.007259,0.575169,0.024627,-0.016647,-0.006521,up
0.782813,-0.007015,0.572302,0.02763,-0.028574,-0.011069,up
0.782264,-0.008052,0.571509,0.027459,-0.029261,-0.005406,up
0.78446,-0.007198,0.578219,0.024026,-0.027716,-0.013987,up
0.782081,-0.008113,0.571631,0.024884,-0.029947,-0.008495,up
0.780922,-0.00793,0.573644,0.026686,-0.030376,-0.00738,up
0.781166,-0.00732,0.573949,0.034924,-0.036983,-0.009696,up
0.780861,-0.006466,0.577548,0.038099,-0.030891,-0.008066,up
0.78019,-0.008357,0.577121,0.025399,-0.025828,-0.009696,up
0.621102,-0.012749,0.74786,0.02497,-0.017505,-0.002317,up
0.623481,-0.014091,0.74847,0.027716,-0.017762,-0.002574,up
0.622688,-0.01342,0.747677,0.027802,-0.026086,-0.00532,up
0.62281,-0.013725,0.746457,0.029003,-0.026257,-0.009439,up
0.622627,-0.014091,0.747006,0.002059,-0.023855,-0.007208,up
0.623603,-0.014152,0.74664,0.022568,-0.024198,-0.009954,up
0.6222,-0.012078,0.748165,0.031749,-0.031492,-0.008838,up
0.62159,-0.012932,0.747555,0.030977,-0.025228,-0.006178,up
0.622383,-0.013603,0.747189,0.028231,-0.028317,-0.009267,up
0.621468,-0.013176,0.749507,0.023254,-0.01536,-0.005749,up
0.462014,0.004453,0.856928,0.025313,-0.008838,-0.012099,up
0.464515,0.003782,0.854976,0.026944,-0.012442,-0.003518,up
0.466833,0.003721,0.854854,0.022997,-0.017076,-0.010383,up
0.467626,0.005307,0.855708,0.023855,-0.012957,-0.003518,up
0.468907,0.004636,0.855403,0.021624,-0.032865,-0.009954,up
0.469029,0.003904,0.853695,0.020594,-0.012871,-0.004805,up
0.47275,0.004941,0.849425,0.027973,-0.025571,-0.011327,up
0.471164,0.004453,0.853817,0.020937,-0.011412,-0.00695,up
0.47336,0.005551,0.851011,0.016904,-0.016818,-0.011842,up
0.475129,0.006405,0.85278,0.025485,-0.01965,-0.010297,up
0.72224,0.001891,0.654103,0.029861,-0.015445,-0.001459,up
0.722728,0.000671,0.649162,0.032092,-0.024799,-0.000343,up
0.726022,0.002562,0.651968,0.027802,-0.020165,-0.00738,up
0.725412,0.00244,0.645929,0.021109,-0.042475,-0.012957,up
0.724131,0.002745,0.648003,0.019822,-0.060409,-0.014673,up
0.718153,0.003538,0.655201,0.022911,-0.019478,0.001373,up
0.716323,0.001891,0.653249,0.031492,-0.027973,0.000257,up
0.71309,-0.00244,0.660142,-0.018449,0.026171,-0.004376,up
0.718336,0.002135,0.651175,0.007036,-0.017247,-0.001716,up
0.719678,0.005185,0.655567,0.01802,-0.01699,-0.00103,up
0.852658,-0.004209,0.470066,0.027802,-0.022482,-0.002145,up
0.851255,-0.003843,0.468236,0.032006,-0.036211,-0.000944,up
0.850096,-0.00244,0.471164,0.025485,-0.021881,-0.003518,up
0.850767,-0.002135,0.474092,0.027973,-0.028746,-0.005749,up
0.848998,-0.003172,0.47397,0.000944,-0.026171,-0.014416,up
0.848022,-0.001342,0.469334,0.026343,-0.029346,-0.007208,up
0.849852,0.000488,0.477264,0.01965,-0.01596,-0.00635,up
0.849303,0.000671,0.473909,0.029346,-0.029175,-0.00901,up
0.848388,-0.000366,0.475495,0.033637,-0.025657,-0.004634,up
0.848876,-0.001647,0.474946,0.000257,-0.020079,-0.001545,up
0.844789,0.001708,0.481961,0.027115,-0.011412,-0.008066,up
0.845643,0.000854,0.47702,0.024455,-0.032607,-0.005063,up
0.845216,0.001708,0.482876,0.030548,-0.01699,-0.003003,up
0.847046,0.00061,0.478057,0.017762,-0.023683,-0.003089,up
0.845704,0.001159,0.478484,0.018363,-0.028574,-0.003347,up
0.845155,0.002074,0.480924,0.024799,-0.023511,-0.004719,up
0.845643,0.002745,0.480741,0.02969,-0.025571,-0.010383,up
0.84485,0.001586,0.480924,0.026,-0.025914,-0.005406,up
0.844301,0.001281,0.48251,0.043162,-0.01862,-0.005406,up
0.844545,0.001098,0.478545,0.026858,-0.03235,-0.008152,up
0.757132,0.006405,0.609817,0.034323,-0.000257,-0.006178,up
0.757559,0.003477,0.60573,0.030119,-0.033465,-0.007294,up
0.755851,0.00366,0.606767,0.01699,-0.027287,-0.020422,up
0.755546,0.003477,0.61061,0.019908,-0.019221,-0.011327,up
0.756095,0.002745,0.608536,0.023769,-0.016475,-0.015274,up
0.7564,0.001342,0.606889,0.021023,-0.018363,-0.006521,up
0.757132,0.001525,0.607194,0.018191,-0.001287,-0.011412,up
0.757254,0.001403,0.606889,0.021195,-0.020422,-0.005492,up
0.75701,0.001586,0.606279,0.016733,-0.012013,-0.00103,up
0.758535,0.00244,0.605547,0.022739,-0.018191,0.001373,up
0.688812,0.010797,0.684664,0.020766,-0.017162,-0.003261,up
0.689849,0.012688,0.686555,0.025828,0.00369,0.000172,up
0.692167,0.010858,0.679662,0.031234,-0.033208,-0.002403,up
0.69357,0.012627,0.680638,0.024713,-0.033894,-0.006693,up
0.692716,0.012383,0.682712,0.023511,-0.032006,-0.009525,up
0.691557,0.014579,0.685823,0.019993,-0.003089,-0.008323,up
0.692594,0.014518,0.676856,0.022911,-0.028574,-0.005578,up
0.694485,0.013847,0.680211,0.022997,-0.032865,-0.003261,up
0.691618,0.014335,0.684786,0.023426,-0.021023,0.000858,up
0.69174,0.013908,0.68259,0.025313,-0.000601,-0.004891,up
0.588223,-0.005368,0.773907,0.009439,-0.011842,-0.018878,up
0.593713,-0.006161,0.770491,0.017505,-0.0127,0.001116,up
0.593774,-0.002684,0.76677,0.02866,-0.028231,-0.003261,up
0.594811,-0.001525,0.769515,0.038099,-0.029089,-0.012528,up
0.593591,-0.004697,0.771101,0.000257,-0.028231,0.002317,up
0.593591,-0.001464,0.772321,0.029861,-0.023769,-0.003175,up
0.59353,-0.002562,0.77043,0.03295,-0.017419,-0.004805,up
0.592188,-0.001952,0.768905,0.025742,-0.038785,-0.008409,up
0.593103,-0.000854,0.780007,0.032435,-0.035353,-0.005663,up
0.588955,-0.006405,0.77104,0.004205,-0.027802,-0.00901,up
0.527772,-0.015555,0.819352,0.027716,-0.024455,-0.008752,up
0.528443,-0.001037,0.815631,0.023511,-0.020251,-0.006264,up
0.52765,-0.000488,0.816058,0.024198,-0.001459,-0.004376,up
0.529602,-0.001464,0.819596,0.031577,-0.023511,-0.003347,up
0.526125,-0.002501,0.817705,0.013729,-0.026515,-0.000772,up
0.529175,0.00061,0.819779,0.024198,-0.031921,-0.007036,up
0.527711,0.000488,0.819352,0.017247,-0.019736,-0.00901,up
0.526003,0.001586,0.817217,0.016904,-0.027802,-0.00738,up
0.528992,0.001952,0.818681,0.026858,-0.022739,-0.011069,up
0.527223,0.00122,0.818254,0.021195,-0.021109,-0.003432,up
0.378566,0.001952,0.899506,0.076798,-0.054917,-0.00695,up
0.370209,-0.006954,0.914756,0.042818,-0.027201,-0.005749,up
0.372466,-0.013603,0.898469,0.026,-0.042303,-0.006178,up
0.366427,-0.01037,0.907436,0.013558,-0.004634,-0.003861,up
0.37027,-0.011834,0.905179,0.015617,-0.004891,0.005835,up
0.374906,-0.009028,0.899262,0.037241,-0.001201,0.009181,up
0.372832,-0.006222,0.900116,0.029261,-0.03132,-0.004119,up
0.372283,-0.006466,0.91073,0.032607,-0.00429,-0.010726,up
0.373015,-0.011712,0.897127,0.005835,-0.027287,-0.004548,up
0.372405,-0.00854,0.907131,0.027802,-0.011241,-0.011584,up
0.714188,0.003355,0.658861,0.010211,-0.056033,-0.000429,up
0.702354,-0.001403,0.665449,-0.005406,-0.052772,0.000601,up
0.703757,0.003904,0.678869,0.033379,-0.008581,0.004634,up
0.703513,0.003172,0.664595,0.015102,-0.032264,-0.001888,up
0.701561,0.00732,0.675575,0.026858,-0.029003,-0.00369,up
0.702842,0.006588,0.670878,0.021624,-0.033894,-0.008495,up
0.702232,0.006588,0.674477,0.031577,-0.030977,-0.004634,up
0.700402,0.007076,0.670329,0.017762,-0.032264,-0.00369,up
0.703452,0.011346,0.676795,0.043848,-0.013472,-0.006264,up
0.703025,0.010126,0.671183,0.024284,-0.020594,-0.012013,up
0.713578,0.011407,0.659654,0.031577,-0.022997,-0.012871,up
0.714188,0.00976,0.657214,0.028145,-0.031406,-0.005663,up
0.715164,0.00854,0.659593,0.027716,-0.02437,-0.00429,up
0.712175,0.00854,0.659349,0.026343,-0.034066,-0.001716,up
0.713395,0.010004,0.662277,0.028317,-0.025228,-0.008238,up
0.71126,0.006222,0.661057,0.036468,-0.025571,-0.009782,up
0.712541,0.008357,0.666059,0.022825,-0.021195,-0.009181,up
0.712114,0.008601,0.661789,0.019307,-0.022053,-0.008495,up
0.711504,0.006466,0.66185,0.019307,-0.043848,-0.007036,up
0.71065,0.005856,0.661118,0.026601,-0.045221,-0.010898,up
0.810324,-0.004575,0.528199,0.009868,-0.017591,0.004462,up
0.817217,0.02623,0.529236,0.041102,0.044706,-0.010898,up
0.819657,0.011346,0.510936,0.003432,-0.018363,-0.020079,up
0.826672,0.008723,0.52094,-0.046336,0.000257,-0.032092,up
0.822646,0.012383,0.508618,-0.005921,-0.046508,-0.035096,up
0.816302,0.016775,0.5185,0.037327,-0.039643,-0.001201,up
0.822829,0.015799,0.518439,0.041703,-0.016733,-0.009181,up
0.822158,0.008113,0.509411,0.030548,-0.037927,-0.005063,up
0.823561,0.011163,0.516609,0.041789,-0.033551,-0.011069,up
0.821548,0.007564,0.512461,0.019478,-0.044792,-0.020937,up
0.807274,-0.009455,0.537959,0.046937,-0.024284,-0.022053,up
0.807518,-0.01586,0.5368,0.029775,-0.026772,-0.015188,up
0.804651,-0.017263,0.534238,0.024799,-0.030033,-0.001459,up
0.80886,-0.016165,0.539789,0.02763,-0.01536,-0.002231,up
0.80581,-0.009577,0.538813,0.028231,-0.021023,0.00738,up
0.813557,-0.009638,0.541497,0.01167,0.006865,-0.043247,up
0.812947,-0.016714,0.523014,0.00695,-0.057406,-0.003861,up
0.81374,-0.014457,0.536434,0.040244,-0.026429,-0.026686,up
0.802211,-0.010858,0.541497,0.040416,-0.032264,-0.007294,up
0.806115,-0.024095,0.53802,0.030119,-0.024198,-0.004548,up
0.661057,-0.025132,0.712053,0.025571,-0.021109,0.00532,up
0.661789,-0.025132,0.714493,0.000601,-0.024627,0.003604,up
0.663192,-0.022326,0.714432,0.027802,-0.020766,-0.006607,up
0.663314,-0.021167,0.711504,0.026257,-0.02437,-0.00738,up
0.664717,-0.020618,0.710589,0.027544,-0.025571,-0.009181,up
0.663375,-0.023729,0.710772,0.030033,-0.02763,-0.006607,up
0.662948,-0.022631,0.709857,0.025399,-0.026343,-0.003861,up
0.662094,-0.02318,0.713761,0.029089,-0.026944,-0.006007,up
0.661484,-0.022875,0.717177,0.019564,-0.019908,-0.004376,up
0.661789,-0.023729,0.71553,0.013729,-0.020594,-0.013129,up
0.497089,-0.003782,0.840946,0.032607,-0.033208,-0.00798,up
0.493307,-0.007015,0.839482,0.019221,-0.018106,-0.001888,up
0.496662,-0.002867,0.840885,0.025313,-0.022653,-0.010554,up
0.496174,-0.004331,0.842349,0.040931,-0.022568,-0.00695,up
0.495686,-0.005673,0.840397,0.027287,-0.033294,-0.004462,up
0.493429,-0.004209,0.841617,0.031492,-0.036726,-0.006779,up
0.492758,-0.004575,0.842654,0.021023,-0.024284,-0.005406,up
0.493002,-0.004087,0.843447,0.02703,-0.014587,-0.003518,up
0.491294,-0.003538,0.842593,0.036297,-0.043333,-0.004548,up
0.492453,-0.00427,0.844118,0.030462,-0.021452,-0.008409,up
0.482083,-0.004148,0.851682,0.036383,-0.056633,0.003003,up
0.477752,-0.003538,0.852902,0.03132,-0.039129,0.000858,up
0.477325,-0.006954,0.851926,0.025914,-0.048911,-0.004033,up
0.470432,-0.003599,0.84851,0.026772,-0.036983,-0.001974,up
0.470432,-0.003721,0.855342,0.039386,-0.044105,0.000944,up
0.466955,-0.004941,0.860954,0.032264,-0.028231,-0.000772,up
0.465186,-0.002867,0.859673,0.032607,-0.031835,-0.002917,up
0.460367,-0.015006,0.855037,0.026343,-0.032435,0.001373,up
0.456707,-0.007198,0.860832,0.047795,-0.035782,0.0127,up
0.457439,-0.00488,0.864492,0.013901,-0.08761,0.004205,up
0.407541,-0.002013,0.890844,0.027201,-0.028059,-0.007894,up
0.405894,-0.001891,0.889624,0.030805,-0.038099,-0.014502,up
0.403027,-0.00366,0.889807,0.036297,-0.029089,-0.005234,up
0.402234,-0.005002,0.890295,0.032521,-0.027802,-0.005148,up
0.400709,-0.004758,0.892796,0.034323,-0.021195,-0.004891,up
0.400526,-0.005612,0.891393,0.028059,-0.031492,-0.008667,up
0.40016,-0.005246,0.88816,0.018535,-0.019307,-0.008581,up
0.401075,-0.005917,0.893223,0.031063,-0.020851,-0.008066,up
0.400648,-0.004819,0.889319,0.023254,-0.030204,-0.006521,up
0.401563,-0.005124,0.892552,0.000772,-0.026257,-0.012185,up
0.410652,-0.007198,0.887123,0.020251,-0.013129,-0.016389,up
0.411872,-0.007015,0.88023,0.008838,-0.0127,-0.017247,up
0.412604,-0.008418,0.882731,0.010554,-0.01064,-0.009525,up
0.414251,-0.004819,0.886452,0.01862,-0.009611,-0.0133,up
0.414434,-0.00366,0.883707,0.027888,-0.019822,-0.010125,up
0.417179,-0.002745,0.884439,0.02334,-0.014502,-0.016818,up
0.417972,-0.004087,0.877973,0.022997,-0.001287,-0.009954,up
0.418277,-0.001159,0.883585,0.023597,-0.01965,-0.011756,up
0.419924,-0.003111,0.880291,0.023168,-0.029604,-0.010554,up
0.418094,-0.001525,0.884012,0.023511,-0.019049,-0.007894,up
0.423889,-0.002257,0.883463,0.027115,-0.022911,-0.007122,up
0.423218,-0.00183,0.881938,0.025056,-0.02334,-0.004634,up
0.424926,-0.002318,0.879132,0.027201,-0.025228,-0.011155,up
0.424255,-0.001769,0.87962,0.028231,-0.024112,-0.012013,up
0.426451,-0.001098,0.879132,0.029346,-0.017848,-0.012013,up
0.426451,-0.003172,0.875594,0.029175,-0.004977,-0.019393,up
0.43005,-0.003965,0.878522,0.026171,-0.018363,-0.00738,up
0.431209,-0.002562,0.874313,0.02497,-0.011327,-0.008409,up
0.432124,-0.004148,0.873947,0.019993,-0.011584,-0.008581,up
0.433771,-0.003233,0.875716,0.030204,0.003003,-0.012271,up
0.695217,-0.007747,0.682712,0.030548,-0.017762,-0.003261,up
0.695949,-0.007381,0.681919,0.043676,-0.012185,-0.009696,up
0.695705,-0.008784,0.678747,0.030376,-0.021109,-0.001116,up
0.696742,-0.009943,0.677161,0.028317,-0.03398,-0.002917,up
0.697474,-0.009638,0.680028,0.028832,-0.031921,-0.007036,up
0.695156,-0.009089,0.681309,0.031577,-0.028746,-0.007036,up
0.694912,-0.011163,0.680882,0.033808,-0.027544,-0.005406,up
0.694729,-0.009821,0.679479,0.032521,-0.029947,-0.003776,up
0.692533,-0.011285,0.683505,0.026343,-0.020937,-0.003604,up
0.69418,-0.013176,0.680333,0.025056,-0.042132,-0.003432,up
0.690825,-0.010919,0.687836,0.026515,0.008667,-0.003347,up
0.692594,-0.013481,0.683322,0.019135,0.018535,-0.012271,up
0.700341,-0.010309,0.679052,0.019307,0.003261,-0.020594,up
0.703208,-0.013054,0.670451,0.024026,-0.009096,-0.012271,up
0.706624,-0.012139,0.670756,0.02866,0.016818,-0.005749,up
0.711626,-0.01586,0.662582,0.04299,-0.003261,-0.004548,up
0.711382,-0.01403,0.664717,0.036297,-0.006607,-0.003261,up
0.715652,-0.017629,0.660813,0.023168,-0.019993,-0.00369,up
0.714737,-0.016287,0.659105,0.02128,-0.018535,-0.00635,up
0.717665,-0.016226,0.65941,0.02334,-0.020422,-0.001201,up
0.737612,-0.013542,0.635803,0.033036,-0.024884,-0.00532,up
0.736209,-0.013603,0.635254,0.022997,-0.021538,-0.003776,up
0.737124,-0.012566,0.634034,0.024455,-0.029089,-0.00798,up
0.736575,-0.011529,0.638487,0.029003,-0.028317,-0.010554,up
0.736697,-0.012383,0.636352,0.000601,-0.043676,-0.009353,up
0.735538,-0.012261,0.634461,0.029003,-0.030204,-0.005148,up
0.736514,-0.012078,0.636535,0.025142,-0.019564,-0.005578,up
0.735599,-0.012566,0.635925,0.028917,-0.024884,-0.003175,up
0.737124,-0.012139,0.634766,0.024884,-0.021624,-0.00532,up
0.735599,-0.012566,0.635864,0.025485,-0.022825,-0.007809,up
0.495808,-0.008784,0.841434,0.004033,-0.003432,-0.017162,up
0.497211,-0.005002,0.840824,-0.00695,0.003861,-0.030462,up
0.502518,-0.006893,0.83753,0.014587,-0.019822,-0.015274,up
0.500932,-0.005673,0.835944,0.021023,-0.002231,-0.009353,up
0.500688,-0.005307,0.837835,0.023855,-0.020079,-0.007036,up
0.499346,-0.004453,0.834114,0.028574,-0.026086,-0.003776,up
0.49898,-0.002806,0.840031,0.065043,-0.04136,-0.004548,up
0.49288,-0.003843,0.844667,0.029003,0.010812,0.001802,up
0.497882,-0.002928,0.836798,0.012957,-0.026343,-0.019478,up
0.497394,-0.002806,0.835639,0.000858,-0.050798,-0.019993,up
0.49654,0.007137,0.840641,0.020079,-0.022653,-0.001201,up
0.499163,0.008601,0.838567,0.024198,-0.01965,-0.006779,up
0.496845,0.006222,0.842837,0.006007,-0.041445,-0.007465,up
0.50264,0.017263,0.831796,0.008152,-0.062125,-0.041188,up
0.497394,0.015067,0.845887,0.050627,-0.042132,-0.029346,up
0.489647,0.004453,0.833443,0.034152,-0.04668,0.001287,up
0.49105,0.003782,0.84668,0.038442,-0.000515,-0.002059,up
0.491599,0.005002,0.835639,0.028488,-0.031749,-0.004033,up
0.490989,0.01342,0.846436,0.051485,-0.018878,-0.007036,up
0.490806,0.003843,0.852841,0.095075,-0.009181,-0.004634,up
0.815997,-0.030866,0.518439,0.043333,-0.031063,-0.003604,up
0.817888,-0.035319,0.52094,0.025399,-0.042303,-0.000601,up
0.818559,-0.034831,0.523441,0.022396,-0.04462,-0.012871,up
0.814472,-0.039162,0.525149,0.027973,-0.03398,-0.000172,up
0.820694,-0.032696,0.52826,0.034752,-0.03029,-0.021195,up
0.81374,-0.03721,0.52277,0.070792,-0.056548,-0.014416,up
0.807579,-0.039345,0.528931,0.010469,-0.000944,0.001802,up
0.81069,-0.036112,0.540338,0.039729,-0.019478,0.005148,up
0.810263,-0.037454,0.531615,0.025228,-0.020937,0.006092,up
0.810873,-0.035624,0.533933,0.029604,-0.02703,0.00103,up
0.878522,-0.044957,0.416447,0.025914,-0.046937,-0.005406,up
0.87535,-0.046848,0.419924,0.022825,-0.056805,-0.002059,up
0.873947,-0.044896,0.42822,0.021881,-0.047709,-0.002746,up
0.870836,-0.045445,0.43066,0.014759,-0.041874,-0.003089,up
0.871263,-0.044347,0.432917,0.019221,-0.037241,-0.008238,up
0.86803,-0.042395,0.435784,0.013644,-0.014931,0.002145,up
0.869738,-0.041053,0.438102,0.026171,-0.022825,-0.005063,up
0.869311,-0.041419,0.435723,0.024627,-0.018792,-0.003261,up
0.870104,-0.04148,0.435967,0.034323,-0.030719,-0.006693,up
0.867969,-0.039467,0.438041,0.031148,-0.034924,-0.005835,up
0.710894,-0.054351,0.663497,0.023855,-0.026772,0.002231,up
0.711687,-0.05368,0.662887,0.030719,-0.018792,0.002488,up
0.711626,-0.052216,0.667584,0.022911,-0.010983,-0.006607,up
0.709369,-0.052643,0.655384,0.02334,-0.041274,0.002832,up
0.710406,-0.05246,0.667218,0.028145,-0.043076,-0.002059,up
0.711992,-0.054839,0.661179,0.007036,-0.004891,0.005578,up
0.713761,-0.048922,0.652944,0.016561,-0.039643,-0.002145,up
0.714493,-0.048373,0.664046,0.030033,-0.033723,-0.002145,up
0.711931,-0.046116,0.664412,0.025228,-0.008066,-0.008667,up
0.711626,-0.047031,0.656543,0.031148,-0.033465,-0.005063,up
0.615612,-0.029951,0.753716,0.024198,-0.071049,-0.000429,up
0.606401,-0.028304,0.758596,0.028574,-0.045993,-0.008667,up
0.602192,-0.028975,0.76311,0.018363,-0.047795,0.002574,up
0.598044,-0.030073,0.764086,0.046079,-0.078514,0.009267,up
0.592432,-0.027084,0.771833,0.02969,-0.035525,-0.003261,up
0.589138,-0.028304,0.77287,0.025313,-0.028145,-0.005578,up
0.586027,-0.028243,0.779824,0.003518,-0.031577,-0.013729,up
0.585844,-0.024949,0.774578,-0.011241,-0.027716,-0.016818,up
0.584258,-0.025132,0.777079,0.030719,-0.05732,-0.006693,up
0.580476,-0.022204,0.783423,0.016904,0.018363,-0.014502,up
0.575047,-0.024095,0.78751,0.025056,-0.022997,-0.000944,up
0.572912,-0.023668,0.787388,0.026944,-0.020165,-0.004719,up
0.574498,-0.023668,0.786473,0.020422,-0.022568,-0.009353,up
0.571753,-0.02318,0.786534,0.019564,-0.034752,-0.006865,up
0.571326,-0.021899,0.789462,0.025914,-0.031063,-0.010898,up
0.570472,-0.022143,0.790194,0.030204,-0.023426,-0.004033,up
0.569923,-0.020191,0.78934,0.000944,-0.016647,-0.007208,up
0.572241,-0.022021,0.78446,0.034409,-0.022224,-0.004805,up
0.570289,-0.021289,0.786351,0.030634,-0.032435,-0.001201,up
0.568642,-0.022082,0.78995,0.031234,-0.041874,-0.001888,up
0.490501,-0.015494,0.843874,0.031921,-0.041703,-0.004205,up
0.489769,-0.016104,0.849486,0.038528,-0.02497,-0.009439,up
0.487634,-0.01891,0.840519,0.016818,-0.029775,-0.003518,up
0.49166,-0.019093,0.845704,0.036468,-0.02334,-0.005663,up
0.485255,-0.016958,0.838811,0.027459,-0.039643,-0.004977,up
0.487146,-0.018178,0.849913,0.034752,-0.009353,-0.003003,up
0.485438,-0.019886,0.839177,0.019993,-0.022396,-0.002488,up
0.490013,-0.018483,0.848144,0.026686,-0.012785,-0.007208,up
0.488305,-0.018178,0.839055,0.024627,-0.02231,-0.000429,up
0.49105,-0.017324,0.845399,0.039386,-0.017076,-0.012614,up
0.449631,-0.046726,0.868945,0.029089,-0.011498,0.012271,up
0.455731,-0.034709,0.860283,0.02866,-0.030376,-0.005921,up
0.453962,-0.033062,0.866932,0.059722,0.003261,-0.011498,up
0.456097,-0.036417,0.856074,0.074482,0.051485,-0.017505,up
0.469212,-0.045445,0.856684,0.036297,-0.004548,-0.008667,up
0.471835,-0.049837,0.854,0.022139,-0.014845,-0.00798,up
0.476593,-0.051179,0.851438,0.03029,-0.043848,-0.004805,up
0.477081,-0.049166,0.848937,0.057234,-0.038528,-0.007465,up
0.473299,-0.056486,0.850706,0.025399,-0.028059,-0.00532,up
0.472628,-0.055937,0.851438,0.01965,-0.030376,-0.005663,up
0.443714,-0.071614,0.86803,-0.017162,-0.067531,-0.028746,up
0.441701,-0.065148,0.870226,0.003089,-0.047881,-0.023683,up
0.435113,-0.061793,0.868701,0.017162,-0.039815,-0.008409,up
0.432124,-0.061122,0.875106,0.019221,-0.025228,0.003861,up
0.429135,-0.059658,0.875289,0.011842,-0.086495,-0.018277,up
0.42334,-0.056852,0.877607,0.005578,-0.045736,-0.011498,up
0.417118,-0.052765,0.880962,0.002917,-0.040931,-0.004805,up
0.413519,-0.047946,0.881694,0.023254,-0.020422,-0.008409,up
0.41358,-0.047885,0.886391,0.020337,-0.015875,-0.010898,up
0.414251,-0.048251,0.881023,0.014759,-0.024713,-0.008323,up
0.386801,-0.027999,0.898408,0.014673,-0.019993,-0.007465,up
0.389485,-0.027328,0.894626,0.024799,-0.019736,-0.00738,up
0.389729,-0.025864,0.896151,0.034066,-0.023168,-0.004548,up
0.38918,-0.027023,0.895907,0.025228,-0.026171,-0.003432,up
0.389363,-0.027694,0.898896,0.032779,-0.021795,-0.005749,up
0.386984,-0.02745,0.897676,0.025056,-0.017762,-0.004376,up
0.388814,-0.027877,0.896883,0.028231,-0.020422,-0.012785,up
0.387716,-0.027877,0.896944,0.022568,-0.023597,-0.007294,up
0.389912,-0.028853,0.895053,0.025228,-0.029432,-0.010297,up
0.388265,-0.026779,0.899384,0.026257,-0.020766,-0.009267,up
0.382104,-0.02684,0.901824,0.022139,-0.007465,0.002145,up
0.387899,-0.024644,0.894199,0.028746,-0.028403,-0.009611,up
0.384666,-0.023607,0.898225,0.020079,-0.043591,-0.007637,up
0.384849,-0.024339,0.899262,0.023168,-0.024112,-0.008238,up
0.383507,-0.022082,0.89914,0.027287,-0.022739,-0.01596,up
0.385581,-0.024095,0.898103,0.028832,-0.027802,-0.007036,up
0.381799,-0.025437,0.899079,0.020422,-0.016647,-0.005921,up
0.382775,-0.025071,0.90097,0.01965,-0.009868,-0.009267,up
0.385947,-0.025193,0.894809,0.020165,-0.027373,-0.006521,up
0.385032,-0.023729,0.899994,0.027373,-0.027716,-0.013043,up
0.588467,-0.029524,0.774639,0.016304,-0.033637,-0.006264,up
0.587613,-0.028548,0.771467,0.020337,-0.027888,-0.005578,up
0.586149,-0.027023,0.776286,0.025056,-0.026515,-0.004205,up
0.584868,-0.026413,0.776286,0.02497,-0.022482,-0.003947,up
0.584868,-0.024522,0.776835,0.02128,-0.020937,-0.011155,up
0.584624,-0.027755,0.774395,0.014673,-0.02437,-0.003175,up
0.585478,-0.025803,0.775615,0.024026,-0.026429,-0.006092,up
0.585478,-0.025498,0.776652,0.025313,-0.020594,-0.005749,up
0.585173,-0.023973,0.777079,0.013214,-0.02334,-0.00901,up
0.584685,-0.022021,0.777872,0.02969,-0.021709,-0.009267,up
0.567971,-0.017202,0.789401,0.020079,-0.022653,-0.008409,up
0.567117,-0.01769,0.790621,0.030462,-0.026429,-0.007122,up
0.568215,-0.016836,0.788791,0.028574,-0.028231,-0.008066,up
0.566507,-0.017263,0.788181,0.031663,-0.001545,-0.004805,up
0.565348,-0.017629,0.792939,0.029432,-0.016904,-0.004805,up
0.565348,-0.016714,0.789645,0.026858,-0.025914,-0.007637,up
0.565836,-0.017751,0.790926,0.023254,-0.000601,-0.008667,up
0.566812,-0.017141,0.78934,0.026772,-0.000257,-0.010297,up
0.564799,-0.016653,0.795379,0.026601,-0.012013,-0.005234,up
0.568093,-0.0183,0.789279,0.026429,-0.000601,-0.008152,up
0.661728,-0.013725,0.712724,0.020766,-0.017934,-0.010726,up
0.661789,-0.013481,0.711565,0.023769,-0.030977,-0.006436,up
0.661362,-0.012932,0.715286,0.043076,-0.024541,-0.008581,up
0.66124,-0.013054,0.711321,0.027888,-0.039386,-0.007208,up
0.659105,-0.011895,0.720227,0.025828,-0.015789,-0.010469,up
0.660264,-0.013481,0.717604,0.021538,-0.018449,-0.003518,up
0.658312,-0.014579,0.711931,0.019564,-0.026429,0.000172,up
0.66002,-0.011285,0.716201,0.030977,-0.032435,-0.006178,up
0.660508,-0.012993,0.716018,0.028231,-0.024541,-0.006521,up
0.6588,-0.012261,0.715042,0.025657,-0.023511,-0.009181,up
