acc_x,acc_y,acc_z,gy_x,gy_y,gy_z,pitch,roll,yaw,direction
0.166802794,0.018452236,0.914350629,0.042332958,-1.071081161,0.073441103,175.7419285,348.9187993,1.168369705,down
0.418704093,0.011168458,0.913375795,-0.104580134,-0.584221601,0.152853578,175.5187316,340.8182248,0.163964174,down
0.517864466,-0.000964904,0.851233125,-0.203540295,-0.607129097,0.092072487,176.6982096,332.8480754,357.9955568,down
0.594234943,-0.030153235,0.798350871,-0.101525813,-0.294671535,0.051755384,177.4295999,328.4404279,356.3244558,down
0.686606824,-0.048968859,0.735233426,-0.052962024,-0.607129097,-0.00566595,178.0919917,319.9709729,355.4223577,down
0.753521919,-0.098902613,0.625082433,-0.191933855,-0.568033695,-0.043234162,179.6991762,310.9878978,349.470816,down
0.837893069,-0.134604052,0.541981816,-0.045304321,-0.106769823,0.019609248,180.3355349,308.3742371,347.8540795,down
0.826255679,-0.100832425,0.513956666,-0.132592916,-0.015181858,0.043401383,179.7323572,308.7859609,347.4091874,down
0.835711062,-0.125437453,0.53540194,0.116029225,0.179989576,-0.025015524,177.6365683,310.605315,349.465964,down
0.806132674,-0.096972808,0.577317834,0.093067825,0.154502839,-0.039396208,176.7035645,311.3735815,349.6013725,down
0.136497051,0.01505314,0.964308441,-0.13875553,-0.704068244,0.084914871,320.048796,333.5616577,205.6984725,down
0.299178272,0.004370267,0.959190845,-0.04865291,-0.622517705,0.058953099,321.2599867,333.8917624,206.4326222,down
0.386701256,-0.061271381,0.917274892,-0.033686712,-0.307922155,-0.049475484,321.8220976,330.1783183,208.4323513,down
0.443191141,0.01699548,0.87414062,-0.038268201,-0.274935424,-0.104758784,323.0092732,325.4506936,208.0294248,down
0.555201173,0.007769363,0.835636497,-0.21816802,-0.569372475,0.154248074,324.7767076,325.6336368,206.1699877,down
0.620419085,-0.039319821,0.755216539,-0.19831489,-0.476520985,0.044597764,324.930141,324.4720334,204.8598482,down
0.714488149,-0.080086999,0.686250329,-0.19678773,-0.358013093,0.00336436,324.5991261,323.4770661,202.8206132,down
0.726125538,-0.110722683,0.651645362,-0.006683167,-0.022554645,0.010514531,323.1649435,319.0081177,202.7828969,down
0.738975167,-0.109516561,0.663586497,-0.041471779,-0.049723141,0.010249871,322.1751056,315.9117607,203.1081779,down
0.771462858,-0.134121597,0.58389765,-0.066190287,-0.147459835,0.000313796,319.4654159,311.3118264,204.9960421,down
0.04461005,0.03034907,0.973325253,-0.091235764,-0.54788202,0.084613197,327.7578017,35.71943391,187.6987383,down
0.243415698,0.037390053,0.966014266,-0.023124289,-0.609884858,-0.031756628,328.4118675,52.51158375,185.9415902,down
0.321968198,0.040303569,0.921661496,0.064229444,-0.588199139,-0.007016587,328.2901911,68.4986353,184.294736,down
0.408278942,0.042731494,0.908745527,0.074003279,-0.260469913,-0.080625847,327.8760938,80.43568861,182.9673707,down
0.486104071,0.122124664,0.872434676,0.077973902,-0.247030884,-0.119721226,146.638752,88.57673452,0.361361323,down
0.512530625,0.064097241,0.842460036,-0.002354871,-0.38081035,0.02291581,157.5827504,79.22338467,10.66533612,down
0.601750791,0.076479658,0.790308893,0.04529262,-0.551241815,0.014669129,157.152831,65.83189039,10.12425963,down
0.67302984,0.067010745,0.738645136,-0.114754081,-0.391195059,0.04612869,158.8320467,55.44940863,9.58069525,down
0.714488149,0.047830135,0.68698144,-0.003882032,-0.297427267,0.042463496,159.8723664,45.26680893,9.531027822,down
0.746006072,0.044916626,0.661636949,-0.019117292,0.020739496,-0.000533443,160.7507697,39.82249588,9.046091221,down
0.194684073,0.114112511,0.975031078,-0.08386901,-0.415112853,0.011683862,178.7890125,317.6839352,354.1331446,down
0.282934368,0.093960725,0.957241178,-0.018811859,-0.328980863,0.001604586,178.6781858,315.2503457,354.5480068,down
0.347424984,0.097117029,0.933115244,0.014480297,-0.279500782,-0.008780124,178.8707425,313.3078945,355.4380381,down
0.421613455,0.078907587,0.870972574,0.003484722,-0.514378488,0.00099372,180.4461566,309.1319613,354.22074,down
0.52489543,0.089104876,0.851476789,0.003484722,-0.246208638,0.014738188,181.0257528,306.7039383,354.0880312,down
0.593992531,0.081821099,0.810292006,0.020588949,-0.531788111,0.008934968,180.1603269,300.8735727,355.7264083,down
0.675696731,0.048558515,0.719149351,-0.291868627,-0.444434404,0.051084671,182.7395019,296.2154247,350.944221,down
0.763704658,0.016267104,0.702090621,0.243860185,-0.004000548,-0.074753568,182.4568414,293.9537373,350.3956253,down
0.719337046,0.00752657,0.658468902,-0.031213794,0.051988468,0.021068035,181.3150113,295.803093,351.4860437,down
0.735823333,0.013353592,0.679914176,-0.032351069,0.032932993,-0.00467593,180.4028532,296.9579414,352.4257394,down
0.055520114,0.039089605,0.976736963,-0.031211885,-0.18429029,-0.006150173,210.5662936,278.6655336,318.4785492,down
0.164620772,-0.000241226,0.922879934,0.167624757,-0.727044106,-0.022032669,240.370835,275.9103583,290.2857208,down
0.286813527,0.042731494,0.961871505,0.123031586,-0.734374464,0.009426891,270.1005037,275.3833614,262.4513339,down
0.395186841,0.050986439,0.900947213,0.056141846,-0.486363143,-0.000957818,299.1751369,275.8947854,235.2919199,down
0.513015568,0.067739129,0.935064793,-0.048621543,-0.427414656,0.013092082,309.6663757,278.6074497,224.6539686,down
0.57435441,0.043702662,0.799325645,-0.104821146,-0.521487951,-0.005233875,319.7292832,280.0711114,213.7329059,down
0.68345505,0.023550879,0.732309043,-0.086495191,-0.384348661,0.057074379,322.7958742,281.8195852,209.755878,down
0.737035632,0.004613059,0.682107449,-0.012082946,-0.095731959,0.006409989,319.8527594,280.3988444,212.9213838,down
0.737762928,0.004613059,0.670166373,-0.014417699,0.017933454,-0.004393148,309.0474103,277.6782844,223.5177666,down
0.730489552,0.002185133,0.672115922,-0.024884488,0.015852999,-0.002403663,289.9816544,275.5945371,242.4341258,down
0.064733058,0.05681346,0.990140319,0.004747469,-0.196417034,0.034732681,334.8049946,297.1493779,201.0583151,down
0.123404972,0.042488702,0.967232823,-0.00930243,-0.665866971,0.081769302,335.3252859,298.2536487,201.0597905,down
0.208503485,0.048315722,0.975274801,0.065528557,-0.270637155,-0.011082212,333.9505225,295.7172785,202.6096424,down
0.280025035,0.04151753,0.944568992,-0.001055751,-0.497879028,0.031067491,333.8078621,294.0933532,203.0279914,down
0.36512357,0.04418825,0.914594233,-0.07894107,-0.499711633,0.067413971,334.2295528,294.6264221,202.0007583,down
0.446827799,0.033748168,0.877796054,-0.023963196,-0.371124506,-0.022077786,335.1458483,293.7665218,201.1422308,down
0.516409814,0.027678354,0.83588016,0.005052902,-0.423964351,0.009076341,336.0699661,293.5269734,200.5810625,down
0.566596091,0.045887794,0.794695437,-0.031293578,-0.321644425,-0.096908778,339.5032102,292.4651112,197.710334,down
0.653634191,0.019666197,0.747661889,-0.11101149,-0.387006998,0.105593048,339.5743739,293.4596277,195.9404681,down
0.702608287,0.006798192,0.69039315,-0.013578488,-0.329280227,0.050004311,339.2181813,293.7794445,196.0602013,down
0.175288409,0.091775589,0.993064702,-0.023657763,-0.394031942,0.049088012,340.8786412,21.15858562,183.6662356,down
0.218443766,0.08959046,0.958703399,-0.038623963,-0.255976409,0.009992639,340.0758857,33.40443691,182.0468114,down
0.284146637,0.086919747,0.947249651,-0.020603437,-0.274302363,0.028318597,338.2568168,45.98583661,179.4632887,down
0.330211341,0.07817921,0.929216087,0.02337886,-0.27033174,0.033205517,335.7225724,58.1432284,176.9474159,down
0.43131128,0.072837777,0.89802289,-0.022130601,-0.467946649,0.070773728,326.9666609,71.32914082,167.6709535,down
0.479315579,0.054385535,0.854157448,-0.047176074,-0.329891086,0.038703304,295.992378,81.92498404,135.7982172,down
0.539442122,0.045887794,0.798838258,-0.138500422,-0.559881866,0.043895658,201.7434651,79.62433727,40.45005366,down
0.622843564,0.026707184,0.77373749,-0.147663414,-0.148464113,0.019461051,185.7050881,70.64430508,22.21987408,down
0.662119806,-0.012543746,0.732552767,-0.14583081,-0.329891086,0.072911754,180.7238721,60.55297378,14.55179316,down
0.726610422,-0.039802272,0.699409962,-0.040629786,-0.105029404,-0.009340035,177.7995093,52.96094531,10.97596971,down
0.174318612,0.109256655,0.992577255,-0.011514274,0.083014078,0.024084954,184.8402359,42.78851236,5.665608619,down
0.042428035,0.080849931,0.904115319,0.027886536,-0.522047937,-0.0101235,183.5013958,37.48534858,5.670838837,down
0.285116404,0.104400806,0.939451396,-0.125746071,-1.104813337,0.185658813,183.7334993,22.79392245,4.666472753,down
0.426462382,0.075022906,0.91849345,0.013531201,-0.562059641,0.058904272,183.4006232,13.65707765,4.325593379,down
0.502105534,0.063368864,0.860737264,-0.053358544,-0.342759013,0.05829341,183.3604481,6.23767709,3.837656618,down
0.565141439,0.043702662,0.815653324,-0.079014882,-0.294806093,0.044243507,183.042694,0.352801229,2.747872615,down
0.606842101,0.021851331,0.787140787,-0.101006031,-0.328098238,0.036913123,182.9730807,354.7396722,1.59255188,down
0.654604018,0.006312607,0.714031756,-0.0576346,-0.5177719,-0.002182252,182.4287829,346.7297382,0.684793432,down
0.726610422,0.001213963,0.672115922,0.038271245,-0.298165858,-0.022646237,181.7139627,340.5362456,1.092094421,down
0.757643521,0.003641889,0.666267157,-0.057158176,0.053862289,-0.003549877,181.3281253,338.694386,0.997857874,down
0.028851066,0.096145861,0.969913483,0.047910649,-0.144058049,-0.20849517,119.0370286,317.0392917,23.9449613,down
0.040246025,0.107071526,0.984291553,-0.106564984,-0.13789919,-0.013318516,122.7504522,317.9861609,21.93938894,down
0.110312894,0.082306683,0.956997514,-0.068385899,-0.975089967,0.223391771,127.3971665,309.9215653,18.50287318,down
0.290692657,0.082063891,0.958459735,0.009193987,-0.403625548,0.080754727,130.6315753,305.089384,16.67744536,down
0.351546586,0.063126065,0.910207748,-0.009742837,-0.40454185,0.032801807,133.0715921,302.0940455,15.73803309,down
0.439312011,0.05948418,0.911182523,0.002779901,-0.311384916,0.082892761,136.3570223,300.2555772,14.0461184,down
0.493619889,0.039332394,0.826132357,0.014691774,-0.574056983,0.194375664,141.1718549,295.1971186,10.94758856,down
0.585022032,0.041274738,0.803468525,-0.010353703,-0.282368809,0.023333399,144.8222768,293.6108686,8.205519476,down
0.617752194,0.024764843,0.762040019,0.023243885,-0.384688735,-0.070434421,145.1907928,292.0947101,9.058412882,down
0.682970166,0.027921148,0.719393075,-0.014935192,-0.433252513,-0.062187739,144.50914,289.5006452,10.45451977,down
0.072491325,-0.006995551,0.975031078,-0.016767787,-0.356894374,-0.042945482,340.0391205,313.7257928,164.1358115,down
0.169954583,-0.019539297,0.964308441,-0.064109847,-0.414010257,-0.066158362,339.7564565,313.150165,165.971698,down
0.256750226,-0.019298071,0.935064793,-0.04486759,-0.583219945,-0.040807456,338.58122,312.4712715,168.1780677,down
0.37676096,0.016509894,0.914837956,-0.178341642,-0.438139439,-0.21337688,339.9518085,311.5471366,169.1203743,down
0.468647957,-0.008925358,0.890468299,-0.003328752,-0.291226357,-0.029201012,340.0208617,310.2651511,171.1026454,down
0.495559454,-0.009890262,0.840023041,-0.020432979,-0.285117686,-0.003850105,339.7431974,307.5258662,172.5821737,down
0.573869467,-0.011096391,0.817115545,-0.02867966,-0.269540638,-0.008431595,339.5126632,305.3605698,173.995613,down
0.670362949,-0.026293622,0.753510654,0.029657971,-0.542902827,-0.027979283,339.7025254,307.5698458,173.847234,down
0.722731292,-0.021710331,0.681132734,0.062339265,-0.221282288,-0.00446097,339.686331,305.848621,176.382368,down
0.746733427,-0.019780524,0.667241991,-0.025268346,0.030918032,-0.002107514,339.7158647,301.3780163,177.6029228,down
0.001454675,0.037390053,0.979173958,-0.029849835,-0.446778595,0.049816031,329.1200488,15.42345166,179.5743886,down
0.129223675,0.034233753,0.999157071,-0.068028912,-0.36247918,0.070280023,328.0796744,31.27703447,176.448211,down
0.198805645,0.017481066,0.970644593,0.023906305,-0.267184198,-0.021349769,325.8846155,43.81222111,172.5897279,down
0.254568189,0.017481066,0.935308516,0.09018518,-0.449832916,-0.007605301,321.2910264,56.5404084,167.711757,down
0.317361712,0.018452236,0.916300178,-0.086354867,-0.324910969,0.022021662,311.9660048,66.63690332,156.4145285,down
0.40924871,0.006555399,0.913619518,-0.005720658,-0.314220816,0.004917436,287.9336495,75.47397282,131.036223,down
0.44949472,0.00097117,0.812241614,-0.007858686,-0.254966885,-0.009132464,246.6467406,79.1028455,89.01741149,down
0.494347215,-0.001688581,0.817846656,-0.069556072,-0.337433696,-0.064415768,202.2983223,74.17137378,44.56638669,down
0.577506185,-0.000482452,0.79079628,0.022073708,-0.39546591,-0.030818179,185.3478419,64.85698334,27.66701995,down
0.663332045,-0.003859614,0.767645061,-0.034431323,-0.424482018,0.061117038,178.953661,53.81607475,20.65210148,down
0.148619354,-0.007478003,0.971131921,-0.136345133,-0.444944382,0.062445525,175.9226826,350.9911922,359.4179733,down
0.243415698,-0.030394463,0.970157146,-0.072815143,-0.352398276,0.027015341,176.7751312,346.2876832,357.6576758,down
0.305239409,-0.042455759,0.943106771,-0.063957594,-0.291617185,-0.047510218,176.4147431,342.7628053,357.0837037,down
0.35081923,-0.046074148,0.924342155,-0.052045725,-0.229919821,-0.059727523,175.5410116,339.6350772,357.2758128,down
0.402217776,-0.033530399,0.892661572,0.042332958,-0.261379361,-0.118065156,173.8245578,336.3334253,357.4177966,down
0.520288944,-0.092630744,0.858056605,-0.250576943,-0.529854655,-0.041096132,172.7471091,328.2454909,352.8318753,down
0.584052205,-0.059582796,0.79079628,-0.195599049,-0.347205937,-0.029489694,173.0475828,323.5959353,351.2686695,down
0.691455722,-0.149077609,0.725972891,-0.454911351,-0.473655045,-0.035903778,178.4022325,313.6870281,340.2072456,down
0.736550689,-0.17295897,0.621914387,-0.186159387,-0.357802302,-0.051667951,176.7493131,312.4576896,340.603639,down
0.755219042,-0.216138408,0.633855462,-0.044192288,0.326584727,-0.144741938,175.464855,313.9128649,340.2369091,down
-0.038506363,0.073566154,0.966745377,-0.147733942,-0.180738851,0.051345814,220.6177913,305.6243996,265.2750092,down
0.030305739,0.033019789,0.961140394,-0.275099337,-0.628503084,0.098077007,225.5394207,307.4251653,261.773704,down
0.24559772,-0.004583292,0.957241178,-0.232644215,-0.756784797,0.055316441,234.6082317,308.9777424,256.0662545,down
0.330211341,-0.024605041,0.928241313,0.019643132,-0.579023004,-0.066551179,239.7593008,309.0515221,254.1721884,down
0.457252979,-0.027258525,0.894123733,-0.351152062,-0.449824989,-0.021958016,243.3867323,308.5398214,251.6918189,down
0.556655824,-0.117959462,0.849283516,-0.336796731,-0.415311098,0.063257687,247.4848458,309.3364195,246.8354997,down
0.598114073,-0.134845272,0.767401338,-0.166976199,-0.37346682,0.018053658,249.7434118,309.2509227,246.1751912,down
0.653634191,-0.153902128,0.726460338,-0.01692133,-0.149701476,0.034372136,249.2133345,308.2572018,248.1958139,down
0.664301813,-0.173682645,0.717199802,-0.027819004,-0.032504663,0.029875085,245.5439861,306.6873546,252.8842674,down
0.660665154,-0.167893231,0.712569594,-0.012431093,0.009622116,0.000755219,241.2347719,304.9871771,258.2124502,down
0.160984099,0.001699548,0.990627706,-0.152624667,-0.729524851,0.070699289,302.0693954,46.44923762,188.6670543,down
0.312997669,0.019180615,0.971375644,-0.082069732,-0.398435861,0.059398286,297.7412343,60.65466847,180.0734878,down
0.357607722,0.009711703,0.927266538,-0.051221035,-0.282676905,-0.036812991,290.007172,71.20474942,169.6202895,down
0.434947997,0.001456755,0.897048116,-0.118110776,-0.245414138,-0.07590837,263.749022,79.32201944,140.0004638,down
0.476406246,-0.025328718,0.823451698,-0.11994338,-0.282982349,0.010223631,206.002812,80.12044123,78.89630057,down
0.518834293,-0.033530399,0.838804543,-0.13490957,-0.221284956,-0.080795288,172.8411198,74.13276955,43.13809168,down
0.56005007,-0.062718727,0.809317291,-0.002351817,-0.217314333,-0.055138949,160.6895029,66.49935014,28.97092355,down
0.590355814,-0.061995056,0.791771054,-0.188665718,-0.174248323,0.007169304,158.0273684,58.71587146,22.79573928,down
0.631571651,-0.082981706,0.77373749,-0.059009556,-0.036683872,0.035659503,156.6616857,51.73085215,19.96708132,down
0.627692521,-0.081775576,0.756191313,-0.010327797,-0.005280659,0.003076189,156.4610694,46.16734888,18.30670161,down
-0.130082384,0.063611656,0.951879859,-0.198779732,-0.50008148,0.047058489,167.450516,323.5740582,331.0519951,down
0.020607902,0.037875641,1.000131965,-0.2424566,-0.712051749,0.095622271,174.1699604,319.3946756,326.1352152,down
0.126556769,-0.009166584,0.974299967,-0.150521368,-0.347365201,0.009184841,176.8622844,317.9616849,324.6643681,down
0.230566069,-0.019780524,0.977468073,0.022964362,-0.234660566,-0.009446548,178.0740692,316.52128,326.1008935,down
0.271296978,-0.023157686,0.954804242,0.092297554,-0.266730964,-0.075114563,178.404104,315.8686622,327.8522735,down
0.32487753,0.025007635,0.877308667,0.076415062,-0.285667807,-0.096189417,178.4988524,313.7230198,331.0529514,down
0.393974602,0.033748168,0.909232914,-0.021017939,-0.384627968,-0.018609526,181.7363657,310.485271,329.4699697,down
0.569505453,0.011168458,0.860980928,-0.149299636,-0.439911276,0.01010114,186.0053432,305.7881636,326.6228155,down
0.57435441,0.023065295,0.813703775,-0.023774618,-0.154517427,-0.008672404,186.0421716,304.2819634,327.4081883,down
0.582597494,0.017723856,0.806636512,0.04999727,0.057476018,-0.040999502,183.7796031,305.4244833,330.4332244,down
0.017698551,0.038846813,0.975518465,-0.049879197,-0.576602101,-0.000376962,320.8471495,330.1372416,195.9953555,down
0.121222958,0.015781516,0.969913483,-0.043465111,-0.417166263,0.009396882,320.4110932,326.7981328,197.4501038,down
0.199532986,0.013596384,0.964552164,-0.018725067,-0.431827039,-0.083760068,320.6781604,322.8722904,198.8897301,down
0.255053103,0.023308087,0.959190845,-0.026055451,-0.197254792,-0.021451812,319.806034,317.5109846,200.5909799,down
0.312997669,0.026221598,0.94651854,-0.01536531,-0.259563029,-0.00831821,319.504447,314.739591,202.4131925,down
0.348879695,0.023308087,0.923123658,-0.000399113,-0.196949363,-0.001598693,318.1639165,310.2624259,204.4896792,down
0.382579654,0.036418889,0.913375795,0.120552205,-0.390593618,0.017338129,316.8499316,307.6128418,207.4419192,down
0.449252278,0.074051738,0.889737189,0.081456833,-0.434881359,-0.037639745,318.0838804,305.8948136,209.1428276,down
0.498468786,0.06021256,0.870972574,-0.028379256,-0.117177419,-0.000609179,316.4566186,301.9866408,211.9075925,down
0.507196844,0.070652634,0.836854994,-0.022881469,-0.206363738,-0.010077591,314.7508847,298.4190554,214.4551438,down
0.01066762,0.07308057,0.959921837,-0.112678662,-0.621446669,0.107208535,330.4169925,26.58044443,183.4980354,down
0.163893431,0.060455348,0.968694925,0.051949527,-0.514545262,-0.035733931,330.580695,44.40812096,182.4603384,down
0.267417848,0.082063891,0.955291629,-0.028684689,-0.323955327,-0.007328697,328.7210804,56.89593682,180.059404,down
0.34306097,0.079635963,0.931165695,0.039121356,-0.278751284,-0.041842584,325.0216006,68.94588975,175.8316635,down
0.403914899,0.099059373,0.919468224,0.066915721,-0.188343227,-0.011299321,316.0209515,79.21354237,167.5345273,down
0.452888966,0.112655751,0.885594368,-0.14474909,-0.231103808,0.03909706,255.4778542,85.58031004,106.1299723,down
0.496044338,0.084977403,0.860493541,-0.052215278,-0.190783367,0.021817038,186.9605178,80.58488726,37.2146955,down
0.561747193,0.068710297,0.809073567,-0.027169803,-0.341361642,0.045029916,172.8554222,69.4863148,21.73593981,down
0.593022704,0.062640481,0.80517441,0.043776669,0.015069522,-0.018903574,170.0993999,63.03993445,19.11540454,down
0.583809793,0.07308057,0.798107207,0.015519138,0.021970661,-0.010453492,168.7617347,57.62074625,17.40352179,down
0.076128013,0.116054855,0.994526803,-0.139640629,-0.656700611,0.001763813,167.0199818,315.8120809,350.7884406,down
0.200745225,0.068467505,0.960896671,-0.053203203,-0.484436601,0.055519957,169.1449493,312.1576155,349.2371296,down
0.260386914,0.079635963,0.95334208,0.137081325,-0.360430986,-0.004650272,170.0514657,310.4497404,350.1745714,down
0.360759497,0.111927383,0.933602631,-0.017467584,-0.244977444,0.011232223,170.5421874,309.1415099,351.591092,down
0.384276778,0.105371974,0.910207748,0.013686541,-0.199467987,-0.009537194,170.8024723,308.5582834,352.7243237,down
0.478588223,0.087405324,0.872922122,-0.110624537,-0.419684917,0.101334848,173.718239,305.051695,350.0562956,down
0.541381776,0.068467505,0.83514905,0.027125578,-0.149071604,0.024060395,174.2587392,304.1537369,350.1116483,down
0.575324118,0.071381018,0.826863408,-0.015577119,-0.066499367,0.011087138,174.4790948,304.0066966,350.4119059,down
0.585264385,0.074780107,0.806149185,0.001650415,0.025609672,0.007724522,174.1241572,305.0036003,351.4292037,down
0.581142902,0.069924265,0.799325645,0.002218716,0.031683147,-0.004047782,173.5071725,306.3938716,352.3674437,down
0.226929367,0.091775589,0.960652947,-0.109264195,-0.405085504,0.049097497,312.0283235,323.267468,213.1222324,down
0.321725726,0.03204862,0.934090078,-0.149275869,-0.403863788,0.041156247,312.7087264,322.9458003,210.86674,down
0.393247277,0.030834658,0.921661496,-0.066809058,-0.351940244,0.057038743,311.9280016,320.6788434,210.7164622,down
0.474951565,-0.012061295,0.851720512,0.010159966,-0.376069427,0.044516005,311.6755544,320.3523365,211.9750202,down
0.583082438,-0.001447355,0.8427037,-0.019772433,-0.249620318,0.054289851,311.6068461,318.1746229,213.8336239,down
0.625267982,-0.009649036,0.769107282,0.043146688,-0.343082696,-0.038867101,312.7603695,315.8870183,215.0146866,down
0.684424818,-0.002412259,0.722561121,-0.011831187,-0.296656936,0.006642359,313.6207001,314.0358595,215.8538982,down
0.703335583,-0.002412259,0.699897349,-0.010215111,0.01634369,-0.001475776,311.2971005,309.3432566,218.5710431,down
0.704790235,-0.061030149,0.702090621,-0.025358692,0.037089959,-0.005655163,307.985251,304.8303081,221.9823948,down
0.698486686,-0.006271873,0.699897349,-0.018596161,0.033093415,-0.018537493,304.1137803,300.7746306,225.906557,down
0.013092079,0.104158014,0.978930235,-0.055412807,0.086175479,0.06752184,246.7160056,306.8483319,273.2872036,down
0.004848918,0.08959046,0.98404789,0.011263605,0.014118468,-0.005319959,238.6593398,306.3271475,282.6018878,down
0.01066762,0.099544957,0.985022664,-0.000615977,-0.012692239,0.002511181,231.6242859,306.4493088,290.6572489,down
0.017456107,0.090318836,0.984535277,-0.036129184,-0.052733049,0.022496261,225.9774817,307.0496995,297.4647755,down
0.098675489,0.005098644,0.931165695,-0.08469297,-1.295538425,0.278143376,243.9023706,304.8086906,282.9747956,down
0.426704824,0.085220195,0.938720286,-0.024217311,-0.947039783,0.052734092,259.8384314,302.6153529,271.3143308,down
0.563201845,0.043702662,0.844653249,-0.030631397,-0.62847352,0.073198073,269.0074412,301.7818034,263.7936983,down
0.638360083,0.046616174,0.778611422,0.022513881,-0.2179721,0.033491835,270.9815776,300.8224214,263.5394718,down
0.645148575,0.048558515,0.750586271,0.002584636,-0.054721355,0.001805746,266.1734728,298.8441527,268.9060949,down
0.649270177,0.051957611,0.751804769,-0.003985401,0.009683497,-0.005095807,259.7845207,297.1581342,275.4698179,down
0.092371896,0.042731494,0.983316779,-0.009533014,0.007869337,0.076720126,243.8654739,295.7820423,289.1984366,down
0.088007867,0.044916626,0.981123507,0.005502187,0.009851754,-0.003925039,233.3809969,296.6598104,299.7569597,down
0.090917222,0.045402214,0.981610894,0.007148616,0.016839786,-0.002283873,224.3244666,298.1732847,308.6190994,down
0.094069012,0.042974286,0.983316779,-0.004591148,0.013417196,0.001678069,216.8242222,300.1290479,316.5021042,down
0.09382657,0.043459874,0.980879843,0.006977014,0.025854457,-0.003414829,210.7795185,302.2991083,322.6392853,down
0.089462541,0.045402214,0.981123507,-0.047968503,-0.07759726,0.00261511,206.0850065,304.3942108,327.2909173,down
0.356153041,0.067739129,0.917762339,0.324659288,-2.032366037,0.272922993,237.8761084,289.1143434,304.926163,down
0.698244214,0.122610249,0.770081997,0.086116418,-0.727252424,0.116846912,267.9062372,285.560029,278.466338,down
0.713518322,0.084734611,0.6979478,-0.012897652,0.022298723,0.004900058,258.922585,284.7568329,287.5220214,down
0.698001742,0.082792267,0.69039315,0.023699317,0.020520888,-0.012134506,246.6964166,283.8380837,299.4054918,down
0.065460399,0.065068416,0.989652932,-0.012477972,0.023271425,0.001846505,233.6135649,285.4269565,314.0705159,down
0.057944573,0.061183728,0.938232839,-0.13648361,-0.882336318,0.033916928,237.7236312,283.6573023,308.2828629,down
0.37554872,-0.024605041,0.89802289,0.529970348,-1.725635767,0.13654229,307.7328072,281.9963642,241.7821023,down
0.594234943,0.07162381,0.826376021,0.10602989,-1.020086408,0.20954068,330.0450135,287.953621,220.5902246,down
0.707214773,0.078907587,0.726947725,0.032115191,-0.28918615,0.073623173,333.4428465,289.0589505,219.0488149,down
0.706487417,0.084734611,0.693561196,-0.025481921,-0.000863917,0.006679881,328.7308817,285.8789169,222.5610074,down
0.70042628,0.072837777,0.696485579,-0.010971215,0.016661888,-0.018966157,321.2977098,282.3656452,229.3652965,down
0.698486686,0.070409842,0.702821732,-0.047263056,0.046107896,0.007870008,306.9377971,279.4024496,242.7068416,down
0.689758658,0.070652634,0.70135957,0.000372712,0.0146791,-0.00299508,288.0390872,277.5042785,260.7824728,down
0.688788831,0.065796785,0.704040229,0.007254884,0.01032784,-0.003176664,263.0644595,276.787901,285.260054,down
0.038306456,0.011168458,0.987215936,0.001779284,0.016774407,-0.00515269,220.3883379,280.442742,326.2372206,down
0.042912927,0.018209444,0.991846144,-0.005515624,-0.009173412,-0.003879637,207.2782816,284.162586,338.8268712,down
0.03976113,0.011654044,0.971619308,-0.060493495,-0.416925967,0.091720775,203.9564054,285.1775726,341.238582,down
0.259417146,0.000728378,0.983804166,0.052211143,-0.70403266,0.075838275,214.1618145,279.3413399,331.0082956,down
0.429856628,-0.034736529,0.944812715,0.080462679,-0.099409327,-0.057267707,209.4884351,278.2463376,336.6194138,down
0.437614888,-0.031359363,0.841485202,0.193778187,-0.773193657,0.058185823,241.9736618,274.1927842,305.0220862,down
0.618721962,0.075265698,0.754485428,0.269830883,-0.737152636,-0.034054827,332.790683,275.6676953,217.3972478,down
0.682970166,0.063854448,0.736939251,0.04517654,-0.085426301,-0.019368412,346.7520908,274.9024068,204.1580736,down
0.686849296,0.071381018,0.725972891,0.021037109,0.062755242,-0.032701582,328.6940124,271.7228308,221.5991938,down
0.663332045,0.055599499,0.735720813,-0.03394844,0.068181053,0.004079151,202.6525359,272.2640823,346.9420939,down
0.035397101,0.010197288,0.982342005,-0.011952415,-0.119747125,0.030536078,339.9237364,281.9024081,206.8001,down
0.087765418,0.011168458,0.984535277,0.0790665,-0.287429631,0.052527227,335.499495,280.1163341,211.2836001,down
0.16437833,0.026707184,0.97040087,-0.060210768,-0.330495626,0.043669682,331.533322,278.8028546,214.9522313,down
0.23977901,0.007283777,0.954560518,-0.073955238,-0.439840496,0.046113141,332.3984799,278.5357327,212.6382042,down
0.455313414,-0.021710331,0.861955762,0.164893076,-1.174100518,0.067493431,347.8365968,289.8824459,197.1519114,down
0.561989665,0.013839177,0.810779393,0.138015002,-0.509784579,0.007934066,350.9160849,294.8160623,195.8504052,down
0.660422683,0.016752686,0.744981229,0.0423932,-0.029259998,-0.043046497,351.1606663,291.9656605,195.8485201,down
0.656785965,0.031805828,0.744981229,0.010663953,-0.01068899,0.005140144,350.0715977,287.6180265,197.0168922,down
0.657755792,0.031563032,0.744250119,0.000765674,0.008119971,0.002147349,347.6250342,283.6509638,199.0839533,down
0.658240616,0.027192768,0.744737566,0.001248367,0.007262085,-9.05E-05,343.1114318,279.9633037,202.9212902,down
0.000242446,0.017238274,0.98404789,-0.006368864,-0.004199553,0.003104802,310.1516914,275.7424517,231.5185546,down
0.011394958,0.017481066,0.986484826,0.031133447,-0.044262182,0.0304172,251.8621911,274.4323463,289.8364993,down
0.016971214,0.023793673,0.97040087,0.093136266,-0.353054583,0.072261468,226.0490621,276.0484442,316.102924,down
0.164620772,0.020637369,0.968938649,0.071145117,-1.296535969,-0.033418216,317.734605,275.7872304,226.1876603,down
0.381367415,0.025007635,0.948468089,-0.017005827,-0.050902531,-0.000755265,311.9727155,274.5434257,232.2383063,down
0.369487584,0.012868007,0.916300178,-0.013544764,0.030124808,-0.014251159,244.7702281,273.3435117,298.6327037,down
0.365366012,0.017481066,0.887543917,0.011806142,-0.633274853,0.084098145,270.6429574,273.0850232,271.9050124,down
0.494104773,0.045159418,0.867560804,-0.00731191,0.07616929,0.004786885,213.3764247,275.142242,327.0372919,down
0.487801194,0.011896837,0.865367532,0.000175055,-0.004823759,-0.015735239,196.3071809,278.1670733,343.6301488,down
0.462829262,0.029863488,0.809560895,0.099440649,-1.07261622,-0.01695697,229.531475,273.5172512,310.7476766,down
0.10813088,0.031805828,0.990627706,-0.100006849,-0.293763012,0.008699371,359.0247169,301.6345924,174.7814263,down
0.137466833,0.002670718,0.966014266,-0.028302556,-0.038590275,0.010528857,0.268964872,295.352239,173.7029941,down
0.191532269,0.018209444,0.940913498,0.154651582,-0.997037888,0.096966289,358.0836703,297.5418132,176.230246,down
0.436160207,0.061912108,0.938232839,0.007738493,-0.625326335,0.048707932,355.8773358,300.704546,180.1536606,down
0.497983932,0.035690509,0.854401171,-0.046628512,-0.558436573,0.045042746,355.7174641,301.2708302,180.4607596,down
0.586961567,0.040789153,0.80785507,0.122275732,-0.344328314,0.091773935,354.0571374,299.854044,181.6827897,down
0.622601092,0.040789153,0.75253588,0.126551777,-0.593255937,0.062146969,353.0032763,300.5370629,183.411292,down
0.724913239,0.077450834,0.69721669,0.111280151,-0.352880448,-0.033453442,354.6823212,300.6810638,184.3591173,down
0.747703195,0.082063891,0.656762958,-0.022302458,-0.010580417,0.011321767,354.9794558,296.9049049,184.4122426,down
0.747460783,0.081092723,0.659443676,-0.019332465,0.022897594,0.002311938,354.9667986,292.4357551,184.6730875,down
0.097948149,0.047587346,0.982829392,-0.011321928,-0.004778985,0.004841678,347.2027023,286.7621833,194.7443107,down
0.105706416,0.045159418,0.982585669,-0.036279038,-0.025522731,0.006744811,341.9055738,281.1248594,199.5400324,down
0.123647422,0.042488702,0.987215936,0.012496758,0.029849976,0.001160537,329.3644603,275.8428487,211.9289574,down
0.12316253,0.045159418,0.980148733,-0.055485025,-0.204736263,0.068126023,288.9723096,272.886292,252.0823144,down
0.358335078,-0.020986654,0.892661572,0.076461866,-0.576447785,-0.004566943,336.945417,279.7266377,205.1226329,down
0.481255144,0.007769363,0.892905235,-0.003561478,-0.597828031,-0.019533142,345.9869414,282.6844716,196.9387958,down
0.604660153,0.044431042,0.782754302,0.202910975,-0.740159631,-0.033277608,352.6568278,286.3405421,192.5264936,down
0.7159428,0.075994074,0.731334269,0.03583933,-0.206874281,0.00734493,354.0008412,285.5891666,192.8373355,down
0.716912568,0.05948418,0.691611648,-0.000970896,0.03869772,-0.010914539,353.1162814,282.0825612,193.6524776,down
0.718852103,0.06069814,0.689905822,-0.009458523,0.059700795,0.080156058,351.1412335,278.3277466,195.0864075,down
0.166560337,-0.048727628,0.975762188,0.084961444,-0.077204227,0.090846434,308.8467086,295.3337019,187.4661021,down
0.129951015,-0.008442907,0.959190845,-0.207337573,-0.236334622,0.052667353,302.8792133,291.4854982,194.7084249,down
0.204139471,-0.053552151,0.961627781,0.206523642,0.009844065,0.064273797,295.03609,286.5904177,206.9401462,down
0.180864662,0.00946891,0.989896595,0.505236745,0.334518939,-0.034380946,266.1544234,280.4298466,241.4851257,down
0.076855361,0.105614766,0.94237572,0.53486371,0.359564424,-0.025217965,207.122444,283.9891948,311.2928692,down
0.066430181,0.022336917,0.94993031,-0.375325501,-1.242124319,0.261888683,221.6789568,285.3209383,295.5704226,down
0.402702659,0.061912108,0.91508168,0.00524354,-1.07963419,0.023651253,266.6477338,284.8373882,254.106844,down
0.593022704,0.037390053,0.806392908,-0.097687259,-0.842618406,0.127498344,288.837707,288.381669,233.2511141,down
0.689273715,-0.010372713,0.703796506,0.078547373,-0.395159602,0.030676205,293.8602798,289.1388706,228.7810011,down
0.717882335,0.020637369,0.691367924,-0.125930354,-0.035286926,0.052897997,287.2298873,287.4685068,235.2783415,down
0.041700698,0.123824216,0.983316779,0.023032479,0.013053723,0.00696406,250.315645,285.3231376,279.855899,down
0.048974074,0.06021256,0.98404789,-0.059505247,-0.072760865,0.068731107,235.2279347,287.0849849,295.3700317,down
0.140133739,0.052685987,0.960409284,0.00035955,-0.861387908,0.170440182,253.5080618,287.1028458,279.5501797,down
0.361001968,0.005827022,0.916300178,0.15429759,-1.081299305,0.141729519,285.7554407,286.6365966,252.3350246,down
0.52368319,0.068710297,0.813947499,0.172928989,-0.838785887,-0.049165878,305.8476067,288.2988802,235.6147147,down
0.668908238,0.065311208,0.74230057,0.167736635,-0.646668792,0.0021468,319.8587597,290.6920692,224.118673,down
0.745521188,0.071138225,0.679670513,-0.043337148,-0.078039989,0.006360188,317.8888375,289.5351035,226.3896836,down
0.739460051,0.063854448,0.667973042,0.000443347,0.060217138,-0.020702088,310.9616938,286.1671714,233.3179543,down
0.719337046,0.072109394,0.693317533,-0.000167519,0.255388588,-0.049412753,292.3568049,281.9551986,252.057234,down
0.732914031,0.080607139,0.758140922,-0.050869334,0.648480356,-0.126992643,248.2302926,280.5174165,296.7387401,down
0.053095657,0.017238274,0.99769491,-0.017577179,-0.394266605,-0.013066273,7.280924452,323.6113066,189.3926116,down
0.142558202,0.042974286,0.961627781,-0.08263433,-0.65754956,0.036108382,7.109376141,325.8505397,188.1779991,down
0.226929367,-0.006271873,0.952367306,0.039459478,-0.198759332,0.025578037,6.79510505,319.2496093,187.4184001,down
0.465253711,0.049044099,0.908989251,0.418501377,-1.139797211,-0.052307282,11.53893695,325.7811484,190.6116638,down
0.609266579,0.061669316,0.820283592,0.027547602,-0.357889712,-0.027567238,13.1642684,325.2006882,190.4262105,down
0.681515455,0.042731494,0.750829995,0.055036541,-0.300162941,0.027716067,13.08862235,324.3371166,189.3807271,down
0.734853566,0.063368864,0.711838484,-0.048170347,-0.002625432,0.005289319,12.93931783,319.5512885,188.5899961,down
0.711336315,0.043217078,0.625326097,0.012699097,0.067688726,-0.037141778,12.91325724,313.2509922,187.2302693,down
0.706244946,0.055113915,0.6979478,0.019846942,0.039560072,-0.022368215,13.13581554,307.5698082,186.1196669,down
0.702850699,0.057784636,0.701603234,0.004319914,0.085165635,-0.027520051,13.7394301,301.6973345,184.714697,down
0.10813088,0.099787742,0.976736963,-0.029583108,-0.173230365,0.042118587,9.133160765,327.2276254,182.8460119,down
0.182561785,0.087890908,0.968207598,0.018369813,-0.256308049,0.029901281,9.16120296,322.5944758,181.9692888,down
0.243173257,0.081578307,0.975762188,0.015395515,-0.078290246,0.017707769,9.852545316,317.0853136,181.2379668,down
0.224262461,0.091290005,0.954804242,-0.012258446,-0.027223546,0.006008123,10.58894643,309.5893654,179.9898417,down
0.236869663,0.077450834,0.950905144,0.001494888,0.010357145,-0.00609642,11.96845084,303.0238972,178.1992939,down
0.359062403,0.072109394,0.892417848,0.242786646,-1.425787091,0.032082658,9.975755953,315.3358972,180.9408399,down
0.526350081,0.117268808,0.826619685,0.015544791,-0.479251355,0.047965154,9.844045146,315.6354522,179.9618243,down
0.609509051,0.090318836,0.758384645,0.020737145,-0.42793867,0.0849225,9.270982883,314.997533,179.7569459,down
0.701153636,0.104643598,0.7157377,0.009741571,-0.354329407,0.06170962,8.618777511,315.0174772,179.8934541,down
0.746006072,0.099787742,0.66309911,-0.014092274,-0.087519735,0.006116227,8.923038533,311.307981,179.0599934,down
0.090917222,0.086434156,0.988678098,-0.039327174,-0.007584672,0.049950376,358.0662255,294.6174336,191.4215876,down
0.115404263,0.063854448,0.972106695,0.077042654,-0.236048266,-0.067641184,1.025286206,290.5055436,188.3207363,down
0.171651706,0.079150379,0.980148733,-0.069259569,-0.53781575,0.143107325,359.6747397,289.6107547,188.2339793,down
0.328029335,0.033990961,0.891930461,0.538856804,-1.225039124,-0.127505988,1.365181179,298.6306069,190.0766004,down
0.553019106,0.112170175,0.822476864,-0.063456357,-0.640746534,0.129668295,0.45953374,302.1406547,190.521956,down
0.664301813,0.098816581,0.734014928,0.039474439,-0.611730397,0.079271905,1.538056255,304.744637,189.5746498,down
0.754491687,0.109499447,0.663586497,0.018399589,-0.234521106,0.009938703,2.418816512,303.9195775,188.897942,down
0.754006803,0.100273333,0.645065546,-0.002607584,0.029643834,-0.008802437,2.686757149,299.2191643,188.104998,down
0.74843055,0.099544957,0.646284044,0.008393865,0.029450664,-0.017620664,3.317379124,294.6239564,187.4020759,down
0.753521919,0.112170175,0.66651088,-0.084398746,0.148058653,-0.033794113,4.503998347,289.0483774,185.8729331,down
0.112010017,0.090561636,0.980879843,0.022779714,0.084396273,0.073759362,221.4079485,272.673716,334.6893817,down
0.109585553,0.100516126,0.984291553,0.017151266,-0.003330566,0.002230288,196.4220647,276.871926,359.407636,down
0.105706416,0.090318836,0.963821054,0.012475833,-0.149284527,0.047486499,191.4462992,280.3520439,3.80058662,down
0.214079753,0.081092723,0.965770602,-0.077015921,-0.953794062,0.092690527,195.62199,275.1848556,358.260792,down
0.393004835,0.106585942,0.931896746,-0.045556363,-0.713418543,0.053900585,142.3561414,270.3414933,51.09180941,down
0.551079571,0.080849931,0.832712114,0.127013072,-0.850557804,0.110405616,14.16505675,277.0319368,179.4913608,down
0.668180943,0.098573789,0.740351021,-0.008599017,-0.581777096,0.039850682,14.37770017,281.2388142,178.9747253,down
0.755461454,0.10488639,0.668216765,0.000869393,-0.228391573,0.044432171,14.70737633,281.8377399,177.9872849,down
0.76006794,0.088619292,0.650183201,-0.015393391,0.0073559,-0.0057758,19.47793562,278.9635689,172.7321373,down
0.753037035,0.084006228,0.643603384,0.012660641,0.006345255,-0.008893365,28.00696017,276.2836622,163.7590309,down
0.039518684,0.120910697,0.986484826,-0.002889872,-0.002259478,0.006296895,133.8039113,277.2419651,63.24367217,down
0.050671194,0.117026016,0.981123507,-0.064133957,-0.14917472,0.027906071,150.6013272,280.021654,45.47793008,down
0.094796352,0.108285487,0.975274801,-0.091012031,-0.386495888,0.121979326,155.87702,281.1412586,38.92137536,down
0.177712858,0.087162532,0.963333607,-0.140492111,-0.7933321,0.127782539,150.3278874,279.5399071,41.96909456,down
0.352273941,0.085705779,0.936039627,-0.020457091,-0.790277779,-0.091212653,125.2952578,277.5175018,66.0443161,down
0.511560917,0.094203517,0.868291914,-0.124915048,-0.734689057,0.02301915,83.37881712,277.9461371,108.1549458,down
0.652664423,0.087648116,0.75253588,0.145392835,-0.539823055,0.086243704,58.95191597,279.4165129,133.9874794,down
0.735338449,0.102944054,0.668704152,-0.033836309,-0.006337449,-0.004126492,69.43555967,278.2279576,122.451932,down
0.725640595,0.100516126,0.675527692,-0.015859839,0.038420554,-0.005903831,91.58753654,277.4262914,99.86198287,down
0.72636795,0.096874237,0.673578084,0.009794969,-0.036231425,-0.006492013,115.0021217,277.7702871,75.97768561,down
0.057459682,0.063368864,0.976493299,-0.096801013,-0.387478948,0.060703166,350.097176,332.3535731,167.8669936,down
0.156620055,0.025250427,0.968451262,-0.123068221,-0.652289033,0.139810219,348.2468922,330.388695,167.8813643,down
0.31833148,0.020394577,0.930678308,-0.023802619,-0.787595689,0.005419859,345.7127452,331.8811989,169.5663856,down
0.487073839,0.001942341,0.83514905,0.297817945,-0.751860082,0.132174402,344.9248829,334.2472481,172.8181704,down
0.628662229,0.023793673,0.771300554,0.146323353,-0.565240741,0.079029121,343.6361047,334.9172112,176.3175905,down
0.689516187,0.02646439,0.713544369,0.046141453,-0.151379526,0.014582837,343.2450081,331.1480276,178.2967471,down
0.696547151,0.024522049,0.698922515,-0.001741789,0.024034284,0.000530733,343.5989724,324.6553454,178.9106718,down
0.692183077,0.022579709,0.705014944,0.016151417,0.011972401,-0.011857854,344.0681979,318.453759,179.5927891,down
0.689758658,0.027192768,0.70818305,0.015170377,0.0058291,-0.006430002,344.2771572,312.8050492,180.3186916,down
0.69121331,0.025007635,0.706233501,0.014310285,0.004034836,-0.005225547,344.451754,307.4954343,180.8662952,down
0.110797785,0.01602431,0.992089868,-0.066018492,0.022055361,0.280659378,277.0940779,321.714645,226.0570534,down
0.090432331,0.006312607,0.976005912,-0.013819365,-0.060400385,-0.059762478,272.4468718,317.2901339,232.921776,down
0.164863214,-0.005548195,0.96357733,-0.065132044,-0.552146912,0.066686623,271.5789665,316.127943,236.86244,down
0.311542988,0.001942341,0.906552255,0.51549536,-1.193249941,-0.209729895,283.2682683,318.8456889,234.6788285,down
0.520531356,0.058513008,0.830275178,-0.014735663,-0.755259573,0.047138937,289.9633632,320.7659181,233.5523117,down
0.650239944,0.033262581,0.752292216,0.013669569,-0.596129179,0.005600102,294.9780539,322.4348543,232.5212537,down
0.745036304,0.045887794,0.690636873,-0.037310749,-0.138664275,-0.008007486,296.2280469,319.7087653,233.7566437,down
0.739217579,0.037147261,0.655300856,0.023831498,-0.040846117,-0.004722756,294.2918043,315.6021858,236.6248997,down
0.739217579,0.040303569,0.658225179,-0.010361092,0.011379704,-0.00497945,291.3466814,311.6220365,240.2704312,down
0.740914762,0.047587346,0.659443676,-0.004380908,-0.034724995,-0.009086529,287.6082252,307.7540765,244.5927525,down
0.144255325,0.050258063,1.022795677,-0.151520342,0.021541132,0.068383165,290.5436834,327.6540034,203.317892,down
0.120980509,0.025493219,0.989652932,0.004956402,0.147228688,0.05638263,286.4018908,320.8123292,209.0870249,down
0.083886288,0.029863488,0.980879843,0.022684634,0.055387232,0.000905055,280.9135606,314.4186404,217.1097924,down
0.083401397,0.020637369,0.958216012,0.020546604,-0.486755639,-0.013450278,278.3335933,311.6090284,222.5875359,down
0.21432218,0.054628327,0.973568916,0.275888294,-0.83891952,0.024728799,280.9332725,313.1786639,226.905076,down
0.357850164,0.099302165,0.924585879,0.103318848,-0.622367799,0.010373466,284.7510068,314.0263655,229.3758287,down
0.428644359,0.124309801,0.907770753,0.025738958,-0.15688844,-0.094389923,283.2450184,309.9671226,233.9141752,down
0.451676756,0.087648116,0.849039853,0.040399723,-0.518215239,0.059548117,283.8455354,308.4328914,235.9446811,down
0.610963702,0.09226118,0.785434961,-0.081467897,-0.914361358,0.14232035,288.6796086,310.0276791,233.1075162,down
0.6938802,0.072352186,0.748149335,-0.003582573,-0.481257886,0.002432218,292.8854001,310.2413001,232.6507951,down
-0.008886083,0.063854448,0.970888257,0.021088198,-0.043223388,0.018660683,284.0099108,306.629175,242.3681189,down
0.000242446,0.072352186,0.981854618,-0.003084358,-0.026909705,0.002670648,275.519125,303.1452424,251.5939354,down
0.023517253,0.072594978,0.968938649,0.141996145,-0.473146796,0.033824775,273.0858428,301.5432727,257.5242403,down
0.143285528,0.133535907,0.993795693,0.330448061,-0.558667898,0.003586946,276.7742611,300.5397677,260.477457,down
0.204139471,0.129165649,0.909476638,-0.082191408,-0.857380986,0.102547117,284.8923371,301.0029979,253.7170451,down
0.420401216,0.138391778,0.902653158,-0.027518967,-0.738262296,0.140726179,294.9024711,301.9619087,246.2335825,down
0.58987093,0.113869719,0.814434886,-0.040958002,-0.744370937,0.023440067,306.784514,303.7336734,237.0251351,down
0.690970898,0.103915222,0.738645136,-0.014589762,-0.120220959,0.022545226,306.9921142,301.4125634,237.5224548,down
0.691455722,0.08959046,0.712325931,0.004421726,0.007109966,-0.002922052,302.6369704,297.9234774,241.7531423,down
0.688303947,0.094203517,0.709401548,0.02233905,0.017493244,-0.007506945,296.9398209,294.6975244,247.3157781,down
0.024729483,0.053899955,0.992089868,0.004184678,-0.058798052,0.031895734,312.4749359,306.3952411,234.9763925,down
0.047761846,0.045887794,0.98136723,0.011820495,-0.25916186,0.068242222,307.5794661,303.1664706,239.6173831,down
0.145709991,0.058513008,0.968451262,0.086651489,-0.804969966,-0.005977909,313.4501981,302.7644115,237.2040314,down
0.257720023,0.060455348,0.947737038,0.086651489,-0.604300737,0.015402375,314.6876576,300.8484513,237.1085044,down
0.367790461,0.074051738,0.92531693,0.138269588,-0.678520858,-0.065842703,319.5334446,299.8880379,234.1567835,down
0.491680294,0.091532797,0.881695211,-0.088666841,-0.281458437,0.066715054,323.377919,298.7411876,230.5196941,down
0.572414815,0.06142652,0.788359284,0.036255103,-0.611020267,0.111308224,328.1261368,300.0391831,226.278051,down
0.705760062,0.057056256,0.745468676,-0.001923975,-0.457082212,0.014791511,335.5260918,301.0700431,220.094066,down
0.722246349,0.047587346,0.674309194,-0.02148024,0.042722318,-0.024725273,332.8282132,296.8815047,221.2278501,down
0.725155711,0.039817981,0.686006606,-0.041916341,0.043541465,-0.043366373,328.5085659,292.6514456,224.2059355,down
0.026184158,0.062640481,0.991115034,0.063424706,-0.013225451,-0.026618281,340.7942423,291.0390497,223.2005044,down
0.032972645,0.066039577,0.979905009,0.014348891,-0.059909243,-0.000909373,331.678093,285.619438,231.3235254,down
0.077825136,0.05948418,0.947005928,0.161872849,-0.874803483,0.011002499,340.0402765,285.2740832,223.1335958,down
0.277115673,0.08424902,0.95261097,0.102008045,-0.659778893,0.011918797,351.7865285,287.0521043,212.1151483,down
0.374094039,0.081092723,0.914350629,-0.020470429,-0.521112502,0.141422242,358.3163761,287.8254047,205.5652565,down
0.516167343,0.078664787,0.838073432,-0.001839038,-0.793558359,0.044600088,5.969637415,291.7834993,196.6348934,down
0.656785965,0.052200403,0.743275404,0.023206439,-0.708648145,-0.004269132,11.50496957,296.5314575,189.7022787,down
0.74067229,0.04418825,0.688687265,-0.02192818,-0.06701044,0.017724467,12.56021245,295.7427209,186.9254516,down
0.735580921,0.044673834,0.667485714,-0.03302056,0.064515121,-0.010847245,13.03534261,290.9385571,185.3988497,down
0.725883067,0.049044099,0.669191539,0.013385691,0.019975603,-0.01283687,14.25351965,286.8066956,183.1581925,down
0.023032364,0.074780107,0.976980627,-0.012576081,-0.195659831,0.009765144,21.3452342,309.6348715,182.3249641,down
0.142800644,0.033505373,0.95675385,-0.016241273,-0.508422792,0.030839995,22.15815478,309.2714849,178.3404739,down
0.276873231,0.029863488,0.945056379,0.085162356,-0.557292044,0.009765144,22.27416554,310.7784125,177.2732705,down
0.40924871,0.064825617,0.918737113,0.12028712,-0.68129766,0.233341828,19.62492641,311.79817,180.6381805,down
0.536047876,0.065311208,0.829787731,-0.007689159,-0.673967302,0.081236377,18.58828982,314.6318276,181.3309666,down
0.651694596,0.046616174,0.725729227,0.003000982,-0.604023218,0.088566758,17.46984293,316.372515,180.0030139,down
0.762492418,0.055356707,0.673821747,-0.018684734,-0.285457015,0.024120478,16.41954937,316.1899133,179.2736007,down
0.754006803,0.035690509,0.642141223,-0.009177815,0.022960171,-0.00425345,16.84871235,311.0041503,177.9585571,down
0.748915434,0.042974286,0.64945209,0.017446242,0.037495956,-0.015278405,17.49131021,306.0800073,176.3406355,down
0.742611825,0.041031945,0.657494068,-0.003140986,0.019095089,-0.005557892,18.63298487,301.3909527,174.8221752,down
0.176500633,0.008254947,0.956266463,0.013963241,-1.316867113,0.243675128,315.0240034,68.70903928,140.0172251,down
0.405127138,0.050015271,0.92531693,-0.026964732,-0.801296949,0.062553585,255.7240757,75.61399853,82.09978907,down
0.530956566,0.028163938,0.837586105,-0.021466944,-0.381327063,0.00055076,216.6649012,70.17347282,43.90549417,down
0.592295349,0.026949978,0.795426488,0.010298047,-0.549009621,0.026512532,200.8068549,60.80330022,28.83438124,down
0.694607556,0.033990961,0.714519143,0.079936691,-0.476622075,-0.055648841,190.7024096,49.49017786,20.35755299,down
0.753279448,0.045645002,0.636779845,-0.021466944,-0.484257847,0.068356805,186.3615922,39.45059208,16.69234542,down
0.783342779,0.053899955,0.611679077,0.072775796,-0.003143478,-0.038380202,184.1700714,33.82036469,15.1053134,down
0.783827662,0.051472027,0.609729528,-0.013321424,0.064079396,-0.018874366,182.9340257,29.47202721,13.7055498,down
0.785039842,0.057299048,0.631905913,-0.079024225,0.114048459,-0.006607641,182.1240745,25.5026235,12.82289213,down
0.714972973,0.09104722,0.722317457,-0.217996061,0.888625562,-0.136721939,181.8636121,33.61860774,11.81600955,down
0.0977057,0.054628327,0.954073131,-0.031071298,-0.396940321,0.044094175,183.0670778,336.1385787,4.847715237,down
0.280025035,0.052685987,0.955779076,0.083771363,-0.984592676,-0.022795571,180.7905074,323.9666233,8.242015738,down
0.423795462,0.080849931,0.878039718,0.116147235,-0.541409969,-0.007829372,178.2367644,318.0808034,11.26262421,down
0.507924199,0.093232349,0.811510503,0.071859494,-0.611659467,-0.016076053,175.8343136,311.7764807,13.61345238,down
0.617994666,0.111198999,0.760821581,0.062085655,-0.391747981,0.033098601,174.5260865,307.2030851,15.35331586,down
0.681757867,0.120667912,0.716468692,0.07980074,-0.257052183,-0.012105429,173.0921702,304.4076253,16.88945614,down
0.713275909,0.117268808,0.691611648,0.063918248,-0.175501674,0.008053124,172.4447639,303.2813578,17.86108641,down
0.730004668,0.123824216,0.668216765,0.012941673,-0.112389363,0.005936942,172.042821,302.6535678,18.35672591,down
0.743581653,0.131836355,0.664317608,-0.017186828,0.006174468,0.005077248,172.2878199,303.0332888,17.90417978,down
0.738975167,0.123338632,0.656762958,-0.010648154,0.040433146,-0.007759253,172.6497516,303.8260756,17.10823222,down
0.039033793,0.047101758,0.991115034,-0.011148717,-0.007279225,0.007842394,176.0184009,303.3732375,14.0437671,down
0.041215803,0.04613059,0.985510051,0.018247355,-0.028047718,0.00529116,176.4128989,306.4681431,13.23915631,down
0.034669768,0.043459874,0.928972363,-0.156460106,-0.916856647,0.147928193,176.9879052,303.9252329,10.72608382,down
0.385973901,0.03010628,0.831006289,0.46723333,-2.019468546,-0.224088728,149.4481317,283.011945,38.01358517,down
0.698244214,0.13717781,0.734502316,0.160578951,-0.652351975,-0.007231577,109.3125126,278.1560835,78.76593275,down
0.741642058,0.128437281,0.655057132,-0.004320551,-0.032578807,-0.028024109,119.5031344,278.9539657,68.22996298,down
0.737520516,0.12625213,0.656519294,-0.003213212,0.042764731,-0.017044548,132.561172,280.2837899,54.97226869,down
0.737762928,0.124309801,0.661636949,-0.017266138,0.004253425,0.00207225,141.3746842,281.6791907,46.01299002,down
0.731944203,0.118482776,0.659443676,-0.047569387,0.026099652,0.001103605,148.2625475,283.3698742,38.64027893,down
0.727580249,0.116783224,0.666023493,0.007231027,0.007938933,-0.001743567,152.6797264,284.9802348,34.0240102,down
0.144497767,0.087162532,0.980392396,0.020006344,-0.018075716,-0.011721506,141.5648367,279.749471,48.15057969,down
0.136012167,0.080607139,0.975518465,0.021830902,-0.033001699,-0.073478028,153.96678,283.204167,35.56237712,down
0.140861079,0.082306683,0.97722435,0.007009622,-0.11865522,0.01785689,160.7956987,286.6291654,28.31037425,down
0.160984099,0.078907587,0.978199124,-0.022616662,-0.067582168,0.036165446,164.9690126,289.6748902,23.4225133,down
0.169227257,0.07550849,0.977468073,0.013203826,-0.008590825,0.00427127,167.6131564,292.9079124,20.53264148,down
0.173833713,0.075022906,0.979661286,0.009856891,0.029026628,0.00049988,169.5634213,296.617354,18.46886567,down
0.155650273,0.073566154,0.967963934,0.003175016,0.020948086,-0.012620039,170.7126143,300.5685706,16.3908677,down
0.199290544,0.049044099,0.87682128,0.322657555,-1.708105922,-0.158616841,154.688649,289.604669,31.36359346,down
0.65751332,0.12042512,0.76691401,-0.041723579,-1.277751327,0.084812969,95.72997114,276.8915627,86.81055005,down
0.806617558,0.142276451,0.647502542,0.052960537,-0.21515134,0.022810144,62.76788119,277.1549758,119.8891494,down
0.055520114,0.060455348,0.981610894,0.039809171,-0.017037716,-0.029949864,107.4439163,278.3636051,76.94680066,down
0.074915789,0.073566154,0.968938649,0.011709366,-0.350875586,0.007007482,118.867599,279.0901665,65.30749579,down
0.237839445,0.037390053,0.936527014,-0.126346171,-1.057341218,0.195764855,50.58805905,276.7213203,130.7466776,down
0.443676025,0.04613059,0.88778764,0.119527087,-0.743051052,0.005480318,23.3729654,281.7965538,157.5762071,down
0.54695797,0.048315722,0.818333983,0.05752426,-0.519168973,0.05709843,17.24330263,283.7831212,163.6898275,down
0.650482416,0.0621549,0.760821581,0.001019225,-0.489236534,0.044881124,11.99258787,286.9455329,169.4651759,down
0.721276581,0.055599499,0.693561196,-0.001729667,-0.309031308,0.061374485,10.44716109,287.4724888,171.4622002,down
0.730004668,0.052200403,0.657494068,-0.009642299,-0.051090159,0.005886195,13.8704058,284.1318911,167.9401722,down
0.736550689,0.058998596,0.660905838,0.036945097,0.040889502,-0.023133632,19.7629799,280.355179,161.6560567,down
0.736550689,0.056085087,0.667241991,0.018611472,0.004408043,-0.005750077,27.97671439,277.5304381,153.435842,down
0.110312894,0.011411251,0.971131921,0.103283383,-0.010380708,0.037889961,324.5126081,313.4124271,227.4581574,down
0.104251742,0.017723856,0.950174034,-0.051570963,-0.563213766,0.089813508,322.37021,310.1765089,229.2189938,down
0.353486151,0.046373382,0.949442923,0.070296653,-0.918126464,-0.080617897,332.9460186,313.8535447,222.6086411,down
0.479558021,0.024279257,0.890955687,-0.06073394,-0.337499052,0.007957565,334.4343612,311.3919206,221.157868,down
0.550352216,0.026221598,0.827107072,0.174143732,-0.521674931,0.018342273,337.8706806,310.6067562,219.1305039,down
0.646845698,0.024279257,0.757653534,-0.0069778,-0.525645554,-0.000289116,341.7837045,311.0552196,215.3893088,down
0.744551361,0.04418825,0.695023417,0.06052281,-0.295043916,0.000932614,343.8044177,309.3765572,214.1533724,down
0.747218311,0.042731494,0.659199953,-0.02777065,0.020333329,-0.008708419,341.9442566,304.8527214,214.8555432,down
0.747703195,0.043459874,0.660174727,0.011900429,0.024604699,-0.011649631,339.6307725,300.3470198,216.4235497,down
0.73800534,0.040303569,0.660174727,0.002125189,0.009351097,1.88E-05,336.6301765,296.1935885,218.2965105,down
0.041700698,0.058027428,0.983804166,-0.037373174,-0.004597705,0.073271051,312.01871,305.1202394,225.9526881,down
0.03976113,0.049529687,0.979661286,0.012056552,-0.075244911,0.01659596,305.4734797,300.4416042,232.7912238,down
0.177227959,0.029863488,0.973568916,-0.025206229,-1.067595482,0.155262366,315.1877777,305.9249279,225.3575191,down
0.358092606,0.039817981,0.928972363,0.124761194,-0.526979804,-0.051820945,320.1415876,306.4675147,222.2630746,down
0.444645822,0.031805828,0.885350645,0.027022753,-0.550192654,-0.009365813,323.9830089,306.7092283,220.1351428,down
0.546715558,0.047830135,0.850989401,-0.044753917,-0.287520587,0.007432981,324.8080684,304.7272098,219.6061583,down
0.590355814,0.040060773,0.789577842,0.004726168,-0.39778176,0.012319903,325.9721615,303.2145517,219.3342211,down
0.662119806,0.047830135,0.740107358,0.041378085,-0.373041719,-0.030135229,328.6928785,301.8875006,217.753852,down
0.705032706,0.049044099,0.691611648,0.06489639,-0.31317693,0.023926344,330.2144671,300.511839,217.3520456,down
0.746975899,0.062883273,0.669191539,0.03038251,-0.182757199,0.010181875,329.7056385,298.1505402,218.1484457,down
0.041700698,0.027921148,0.985266328,0.034669224,-0.006860346,-0.002553045,326.8661615,293.8047914,226.7149509,down
0.042670481,0.027921148,0.986241162,0.012173586,0.002478531,0.078214251,315.8976905,288.6558464,236.9687177,down
0.04218559,0.023793673,0.978442848,0.034526121,-0.036493711,-0.0032511,302.3393791,285.0296785,249.9927342,down
0.049458966,0.034233753,0.993064702,-0.007647287,-0.030189097,0.006719611,281.8244415,282.6382722,270.068757,down
0.064733058,0.033505373,0.986484826,-0.02133253,-0.145597249,0.038738701,264.7047772,282.3244182,286.7228414,down
0.109343104,0.02913511,0.985997438,0.075183377,-0.082623243,-0.006341266,249.229078,282.2901443,301.7342243,down
0.119768284,0.034719341,0.984291553,0.005841512,0.026386362,-0.017822828,230.5028099,284.3510719,320.0049189,down
0.143285528,0.038604021,0.975518465,-0.012179011,-0.3196688,-0.048060656,222.6629138,284.4487504,327.5272624,down
0.252871066,-0.001447355,0.943350494,-0.084871978,-0.811415315,-0.016601097,230.8477617,279.9054998,317.9221927,down
0.395671725,0.002913511,0.890711963,0.188490227,-0.709400833,0.050288647,261.8933826,276.6926062,287.9457458,down
0.052853208,0.074051738,0.984535277,0.008243516,-0.03274361,0.00314363,249.2108756,277.3220696,302.9657553,down
0.059399247,0.068953097,0.989165485,-0.028783945,-0.019079242,0.000971058,222.1939804,279.9053427,329.5396137,down
0.080976941,0.069195889,0.994526803,-0.00790453,0.001010381,0.003310783,209.3847665,283.1858211,341.743,down
0.086068295,0.068710297,0.985266328,0.008538876,-0.025742557,-0.001762607,202.0269179,286.6135242,348.7954597,down
0.096978366,0.069681473,0.94578743,0.032057188,-0.735262573,-0.135847524,200.8060216,282.840357,349.8449268,down
0.191532269,0.075022906,0.976736963,-0.016575867,-0.066393673,0.016227163,195.1016525,285.4693924,354.789939,down
0.300875396,0.04807293,0.90484643,0.079635412,-1.10883522,0.107246086,209.960169,276.5489468,339.3294416,down
0.523440719,0.107314318,0.825401247,0.133696988,-0.975666642,-0.01675956,12.98028616,274.1802509,177.2763578,down
0.696789563,0.085462987,0.710863709,0.169738039,-0.673288345,0.072426766,8.187774645,281.4751115,182.4910743,down
0.743581653,0.08959046,0.642872274,0.020339236,-0.137349635,0.021660125,9.266949656,280.7836436,181.206261,down
0.093341678,0.154901668,0.965039551,-0.00621238,-0.100102112,0.056365918,314.0541166,276.7277338,242.3452241,down
0.104979083,0.145432755,0.983560503,0.038121216,0.040187836,-0.020607134,262.2959676,274.5964416,293.7251992,down
0.096008584,0.12625213,0.95675385,-0.073475331,-0.021100491,-0.000643083,218.2516771,277.0529943,336.9354176,down
0.114676915,0.185493529,0.95261097,-0.135783583,-0.431601942,0.195444673,215.6622568,278.1508106,338.2818921,down
0.305481851,0.032777,0.966014266,-0.245739341,-0.581569314,0.117559344,236.5592615,275.9568718,313.7411232,down
0.38330701,-0.002171033,0.941400945,-0.260705531,-0.146633297,0.06746839,224.7989052,277.6056317,322.9287419,down
0.514955163,-0.108792879,0.814678609,0.413995147,-1.034220457,-0.638997257,338.1217327,272.9914018,208.7720303,down
0.664786756,0.000728378,0.747905612,-0.036517981,-0.521704555,0.04272835,359.7061738,276.8375906,185.7067137,down
0.76928091,-0.006271873,0.670897424,0.034647822,-0.295073569,0.048226137,355.3303662,279.1767801,190.0599894,down
0.765401721,-0.016644586,0.635317683,-0.021865563,0.007833466,0.011763806,352.9692197,276.6356629,192.0784605,down
0.02909351,0.019666197,0.992820978,-0.062048122,0.124600776,-0.043860652,175.1050407,305.3376614,15.9419962,down
0.010910066,0.014324762,0.98063612,-0.024746269,-0.010131888,0.017148104,176.2040591,308.6841877,12.90944173,down
0.017940998,0.002670718,0.985266328,0.006120242,-0.078631192,0.013133827,176.4719937,311.1589531,11.86641037,down
0.075158238,0.017481066,0.992577255,0.008563705,-0.283576488,0.022602238,175.7438819,310.259301,12.69485682,down
0.11758627,-0.001447355,0.970644593,-0.001210142,-0.201415107,0.000305656,175.471371,310.642058,11.80043331,down
0.140376195,0.004370267,0.974543691,-0.031150941,-0.105273016,0.012968218,175.7041849,312.0312536,10.48944338,down
0.215534419,0.001456755,0.974543691,-0.068719149,-0.472097576,0.034348499,174.6712007,309.1796189,11.28324284,down
0.309118569,0.048801307,0.928972363,0.32589981,-0.664825559,-0.043231387,172.7583789,305.1891287,15.57618664,down
0.418704093,0.123581424,0.897048116,-0.100789577,-0.622065008,0.025490956,170.3141001,300.9886614,17.3440906,down
0.512288213,0.055599499,0.832224727,-0.119420961,-0.441554338,0.064586326,169.9271972,297.2434569,16.41125923,down
0.041458253,0.025978805,0.985997438,0.040472828,0.019304395,-0.012040621,171.2241818,303.1364451,21.93922502,down
0.049216524,0.033019789,0.986728549,0.028944205,-0.002659839,-0.001457967,172.5397855,306.0276573,20.08155871,down
0.054792777,0.02646439,0.987703323,-0.005913913,-0.046842929,0.022738414,173.6320557,308.3110613,18.27846561,down
0.075158238,0.022822501,0.983316779,-0.02243224,-0.06922967,0.04581004,174.7307053,310.3691271,16.19337619,down
0.099160381,0.010682873,0.985997438,-0.02124395,-0.043379765,0.022829922,175.600284,311.789663,14.55426569,down
0.126799211,0.012382422,0.986972272,-0.023162864,-0.066426724,0.010537778,175.8761827,312.951987,13.23169774,down
0.144740209,0.002670718,0.977955461,0.008501701,-0.11030107,0.040821414,176.4723899,313.8143974,12.16229587,down
0.176258177,0.003884681,0.967720211,-0.027320426,-0.132339507,0.007156375,176.4951617,314.8322288,11.12293404,down
0.234687641,-0.015197231,0.940913498,-0.076495081,-0.612479627,0.047473483,175.8263086,311.2753736,10.20310478,down
0.355425715,-0.028464656,0.887543917,-0.149188042,-0.9625054,0.05297127,174.2917291,304.4919918,9.028954276,down
0.024244592,0.038118433,0.997938573,-0.017229229,0.056538533,-0.002969319,174.1718456,316.2770256,13.24509174,down
0.028851066,0.035447713,0.99160248,0.017592154,0.037769038,-0.004808885,174.7132337,319.0967052,12.41620389,down
0.029820848,0.035447713,0.986241162,-0.001634181,-0.076163031,0.019618476,175.1432761,320.8708264,11.51096903,down
0.057217237,0.031805828,0.983804166,0.008445099,-0.160462439,0.021756504,175.402591,321.586579,10.96509349,down
0.095038801,0.022336917,0.980148733,-0.02973398,-0.274083376,0.072152883,175.6308286,321.3503979,9.857762727,down
0.158559635,0.025250427,0.964064717,-0.108841032,-0.49460572,0.083453894,175.7387319,319.3089055,8.773337008,down
0.32221064,-0.007719229,0.944325268,0.114430211,-0.811950207,0.117356911,175.4165656,310.769424,8.922973646,down
0.520046473,-0.000723678,0.870972574,-0.046532776,-0.591122448,-0.068040684,172.5716142,302.8263135,9.371433621,down
0.61847949,-0.019780524,0.780073643,-0.252088934,-0.52606529,-0.042689778,169.2226768,297.152834,9.59886526,down
0.690970898,-0.054034602,0.703065395,-0.106092133,-0.381290227,-0.002372673,168.7973746,293.6065861,6.689304566,down
0.090674773,0.082306683,0.957728624,-0.221240222,-0.563328087,0.120105803,318.9868143,328.8532411,176.5306514,down
0.230566069,0.033019789,0.943106771,-0.445733219,-0.763997316,0.071847454,316.1868432,330.7963412,175.858192,down
0.367305547,-0.051139891,0.908014476,-0.289657146,-0.385566294,-0.057350546,315.6666662,328.273966,175.2693067,down
0.451434314,-0.112170041,0.895829618,0.063653372,-0.074931629,-0.046745457,315.3414399,322.7773337,177.1018465,down
0.485619158,-0.108792879,0.85293895,-0.068904385,-0.391970694,-0.02964123,314.7425006,321.8708754,178.8872306,down
0.569262981,-0.128814623,0.808342457,0.100916155,-0.347072095,-0.273376465,315.6155252,319.8170102,180.5160704,down
0.599811196,-0.085393965,0.777392983,-0.092117265,-0.136934459,-0.083091937,319.9133363,316.3800521,181.6012372,down
0.6509673,-0.134845272,0.744493842,0.029939756,0.041515626,0.041682392,319.6267928,312.6937512,183.6582853,down
0.653634191,-0.154867023,0.748392999,0.081616774,0.147257298,-0.091249943,319.2940875,306.6371868,185.8201221,down
0.639572322,-0.065613441,0.752292216,0.164389014,0.156420276,-0.123014942,319.5856238,298.6171446,188.8098325,down
-0.012588618,0.19884713,0.948224485,-0.278182864,-0.544242144,0.203492522,285.8599563,17.18674866,161.7555998,down
0.110797785,0.140819684,0.97722435,-0.140432745,-0.684130311,0.136908218,278.4695482,28.49963026,152.9550787,down
0.213594854,0.083520643,0.929947197,-0.234200567,-0.729028881,0.128356099,265.3023232,39.86405417,138.1245797,down
0.398096204,0.018452236,0.928241313,-0.011234744,-0.185358822,0.085290104,253.0918027,45.192797,123.9895305,down
0.457010537,-0.013026198,0.902409434,-0.103475399,-0.126410335,-0.010310302,240.9445435,47.96924841,109.0540788,down
0.490468085,-0.07164409,0.865611255,0.028166063,-0.315167695,-0.158750564,226.9083135,49.1315417,92.477196,down
0.514712691,-0.029912012,0.813460052,-0.013983637,-0.547296464,-0.034744911,209.5341701,47.83633634,76.32493243,down
0.584779561,-0.040284727,0.783241689,-0.038418248,-0.279432088,0.022981852,197.7852748,43.40955414,64.60906796,down
0.625752866,-0.040767174,0.764477015,-0.000622511,0.036172859,-0.028287686,192.7018792,40.20331308,57.97660594,down
0.626722693,-0.057652991,0.768619895,0.008775458,0.0956534,-0.040872209,189.0524272,37.20690226,52.49247972,down
0.01066762,0.012382422,0.993308365,-0.076042458,-0.07273224,-0.023036338,174.0337938,24.84833236,24.99552294,down
0.062066156,0.001942341,0.939451396,0.090723753,-0.836313784,-0.094202138,169.7329466,15.72795686,23.35468098,down
0.262084037,0.0621549,0.960652947,-0.111167215,-0.583110154,-0.063964307,165.6055043,7.310805676,19.75686859,down
0.374336481,-0.019780524,0.92872864,0.026277468,-0.389160454,-0.061826281,163.2724346,359.9370957,19.01049284,down
0.456283212,-0.060788926,0.857325554,0.055904433,-0.542182207,-0.030672152,161.4709039,353.2963789,18.72283601,down
0.598114073,-0.043661885,0.804930687,-0.038168814,-0.706504941,0.015448174,159.276569,343.3777135,15.28643123,down
0.696547151,-0.050898664,0.728166163,-0.015261367,-0.187880352,0.037133887,159.3687766,338.0560143,14.646463,down
0.722246349,-0.059582796,0.712569594,-0.071424216,0.164346486,0.032514852,159.9315022,337.8507706,13.31652954,down
0.693637788,-0.066095896,0.688930988,0.02557594,0.009062208,-0.008973034,160.5905472,336.9410491,12.28333963,down
0.696062207,-0.068266928,0.688687265,0.017390843,0.030365631,-0.015714936,161.1489015,336.1980407,11.65928318,down
0.043882709,0.021122955,0.991358757,0.004405547,0.032033503,-0.002260606,163.0930465,348.1327674,10.65414059,down
0.038548902,0.020637369,0.981123507,0.026437975,-0.004487626,-0.003936373,164.0343422,348.913616,10.11375822,down
0.061823711,0.009954495,0.972350419,0.022467352,-0.196910173,0.00919723,164.5831752,346.8470142,9.48749305,down
0.151771143,0.01699548,0.972106695,-0.111006707,-0.393608779,-0.042420883,164.2420619,342.6263808,7.650649422,down
0.281722158,-0.000723678,0.927022815,-0.009603074,-0.949190795,-0.085792318,162.9864819,331.9879104,7.625450293,down
0.432765961,0.002913511,0.866098642,-0.031899653,-0.604051888,0.04432198,162.9635734,324.8626143,6.605195909,down
0.56005007,-0.004342066,0.808829844,0.086608201,-0.513949275,-0.019513438,162.623471,318.33991,7.097898008,down
0.672787428,-0.002171033,0.768619895,-0.079852581,-0.243946791,0.003699443,162.0027434,314.1921376,7.294927194,down
0.712548554,-0.011820069,0.701603234,-0.019071484,-0.225315392,0.051041499,162.6302602,310.6490316,6.476213336,down
0.730974436,-0.011578843,0.681376398,0.006039657,0.062480953,-0.028831743,162.9495306,310.9436075,6.593860356,down
0.069097087,-0.003377163,0.977468073,0.047273058,-0.212408409,0.039585166,186.2054404,277.4667944,344.931824,down
0.155165389,-0.004583292,0.969913483,-0.034582883,-0.435068786,-0.02730458,194.7539139,276.6520417,336.8373395,down
0.288753092,-0.007960455,0.909232914,0.153869048,-1.06151104,-0.086558506,302.0708297,273.2258549,230.4249457,down
0.438342214,0.026707184,0.882669985,0.022533018,-0.640319526,0.038363434,338.94635,274.5926918,194.4357774,down
0.572414815,0.013839177,0.835636497,-0.058406629,-0.496155322,0.031338483,338.8823801,277.4213737,194.4442332,down
0.66260469,0.004127474,0.753510654,-0.026641635,-0.464084864,0.027673291,341.5959272,280.6541022,191.3557719,down
0.754249275,0.007283777,0.681620121,-0.04848554,-0.130435497,-0.033112112,345.6875187,279.2279246,187.6611586,down
0.731944203,0.007283777,0.658468902,0.013001893,0.05976063,-0.014022895,344.7055655,276.322205,188.7548495,down
0.73679316,0.012625214,0.672603309,-0.007377787,0.057287112,-0.07776691,336.1564909,273.0114211,197.4066365,down
0.726852894,0.003641889,0.667729318,-0.043545805,0.068250842,-0.002004358,221.9900036,271.0467991,310.8042067,down
-0.046158265,0.000485585,0.978442848,0.005269634,-0.075306013,0.001585289,322.7400682,273.577029,215.947745,down
0.092614345,-0.061271381,0.920686662,0.581926405,-1.350487232,-0.033844896,351.4681375,283.6380411,190.3479501,down
0.333848029,0.050986439,0.951392472,0.085903846,-0.666012704,0.051065374,353.8549646,287.0703136,190.0307562,down
0.455313414,0.041274738,0.861468375,-0.006947674,-0.793072701,0.033044849,356.2078491,289.4233616,187.4014339,down
0.584537148,0.030834658,0.805418074,0.007713092,-0.516961575,0.033044849,358.1621239,291.5407817,185.8570871,down
0.647815526,0.026949978,0.749611557,0.022068428,-0.53314954,0.005861345,358.7808839,292.1961657,184.9421559,down
0.750855029,0.044673834,0.69112426,-0.011843899,-0.086529016,0.004444595,359.0634244,290.3388119,183.9940027,down
0.745521188,0.031805828,0.653594911,0.056588031,-0.006533109,0.076121785,359.0265516,286.7115716,183.8517572,down
0.751824796,0.034233753,0.654569745,0.020206865,0.029406123,-0.000675198,359.0696924,282.9214587,183.6813167,down
0.762249947,0.035690509,0.611679077,0.050444696,-0.247315839,0.084235072,347.4818641,282.0374341,194.7524796,down
0.004606472,-0.002171033,0.973568916,0.03822739,-0.329477191,0.010320376,2.257987969,321.895587,193.2815847,down
0.165590554,0.019180615,0.982829392,-0.099217296,-0.838633418,0.005128021,2.714187189,324.3294122,192.4326332,down
0.375063837,-0.02002175,0.927997649,0.000659179,-0.72195816,0.080264449,3.657212838,326.8291043,190.0649344,down
0.415067434,-0.03401285,0.882182598,-0.180767804,-0.317259908,-0.11276897,4.35259269,322.5902753,186.8873392,down
0.473739326,-0.048486404,0.876333892,-0.016750481,-0.217078015,-0.0568748,4.351985657,317.8873314,185.4945816,down
0.50283283,-0.059100345,0.848552465,0.056553345,-0.385982215,-0.038854275,4.547530558,315.006081,184.9629197,down
0.578718364,-0.048003953,0.818333983,0.112142086,-0.28671664,0.035060417,4.690658453,312.8167356,185.1027747,down
0.652906835,-0.010855165,0.745956063,0.133216932,-0.560995162,-0.051377013,6.287650596,314.5364236,184.9613624,down
0.752794564,0.028163938,0.671384811,0.138409287,-0.242734358,-0.017473992,6.809315258,313.2965393,184.9338778,down
0.760310411,0.037147261,0.650914252,0.007542666,0.031758256,0.003306997,6.777540364,308.5723468,184.6455072,down
0.052368317,0.021608539,0.985753715,0.029228382,-0.247712582,0.072945632,353.7058232,350.368495,199.3457955,down
0.156862512,0.004613059,0.917518616,-0.017502807,-0.913250327,0.019800358,355.5017727,350.0147655,197.541683,down
0.355183274,0.02646439,0.928485036,0.160869837,-0.84452796,0.082414046,355.9702896,349.5008663,197.3514076,down
0.452888966,0.035933301,0.834418058,-0.01994627,-0.713802814,-0.000358195,356.7346458,347.8224455,197.300427,down
0.561019838,0.032777,0.820771039,0.01120786,-0.352475971,0.04912189,356.8983266,344.4296344,197.1919636,down
0.629389584,0.032291412,0.751317382,0.051830396,-0.435859084,0.054008812,356.6018908,341.0211651,196.6996299,down
0.708911836,0.032777,0.708426714,0.044805445,-0.213504136,0.021938387,356.3343728,337.5008566,196.5289981,down
0.702850699,0.027678354,0.627275705,-0.027719118,0.043236472,-0.000352175,355.2597988,330.225293,195.9704936,down
0.711093903,0.03010628,0.69039315,-0.004133565,0.035908919,-3.45E-05,354.2374065,323.635868,195.6067177,down
0.711821198,0.020880161,0.692830145,0.009313375,0.025104016,0.001096964,353.3643816,317.4689926,195.8811001,down
0.13770929,0.006555399,0.997207463,-0.089646794,-0.598894835,0.059129164,359.2372405,51.19365436,192.358389,down
0.335787594,0.020637369,0.911182523,0.307415605,-1.326435328,-0.111913107,19.66904089,72.19596013,214.3507512,down
0.497983932,0.025736013,0.859031379,-0.136072546,-0.694189847,0.078982279,74.90111119,81.151711,266.9358585,down
0.601265907,-0.000241226,0.786409736,0.075286821,-0.655094445,0.020644652,139.9103463,74.13008529,331.1401182,down
0.674727023,0.008983325,0.723292232,0.142176569,-0.531088829,-0.008371447,153.8807059,62.79822772,345.7722455,down
0.735338449,0.023065295,0.665779769,0.099110574,-0.236040875,0.075622521,158.0725569,53.4453355,351.4458011,down
0.783100307,0.039089605,0.631174803,0.138511375,-0.08698976,-0.02150505,160.8681807,44.92457206,355.6724143,down
0.796919763,0.037390053,0.598763168,0.037844487,0.04596078,-0.006924693,162.396941,39.50592344,357.351642,down
0.769523323,0.025736013,0.599250555,0.018948887,0.040933847,-0.024060793,163.6234927,34.6244692,358.2491183,down
0.785039842,0.033990961,0.618990004,0.017545819,0.102409765,-0.008046882,164.4877711,30.56768859,359.0083168,down
0.056005009,0.027921148,0.985510051,-0.018009987,-0.005217601,0.027096424,169.7134942,34.30102901,2.695184109,down
0.063520834,0.021365747,0.976249576,0.052544948,-0.240706146,0.05458536,170.6515524,30.08788488,3.478470203,down
0.201715007,0.034233753,0.976005912,-0.027172966,-0.68144542,0.011213927,170.6540386,18.44626457,4.5057806,down
0.312755227,0.045159418,0.916787565,-0.022286044,-0.947782636,0.062526606,170.6299007,9.345626605,4.482712916,down
0.429129273,0.044916626,0.878770828,0.081255615,-0.702825665,-0.037044428,170.1714994,0.722839507,4.474029612,down
0.542593956,0.034476548,0.830518842,0.077590421,-0.387924671,0.003883544,170.0469304,354.3476065,4.602837588,down
0.612660825,0.047344554,0.771056831,0.061402496,-0.620358884,0.038702864,169.9592308,345.4155432,5.414770349,down
0.758128345,0.067496337,0.682351172,0.2037341,-0.69793874,0.092459008,170.0776663,334.0194425,8.175900361,down
0.786494553,0.067253545,0.619964778,-0.024137411,0.075310342,0.067256048,170.0876657,332.5634955,8.845590164,down
0.783100307,0.065796785,0.608998418,0.030859675,0.064933434,-0.021667438,170.2172617,331.4806049,8.844765419,down
0.016243877,0.049286895,0.976249576,-0.007474154,-0.101610653,0.002349406,171.4828274,311.366304,2.303991854,down
0.058429465,0.040546361,0.973081529,-0.023051219,-0.256159544,0.025867717,171.9955287,311.3883962,1.832081918,down
0.118071161,0.047101758,0.989896595,-0.047791261,-0.287008256,0.027089449,172.3635257,311.363968,1.950570973,down
0.201230109,0.036904473,0.938476563,-0.025800113,-0.775395036,0.01212325,172.5138718,305.579392,1.599052939,down
0.409006238,0.07016705,0.916543841,0.029483195,-0.590302825,0.018537335,172.9593231,299.3173619,1.94068961,down
0.536047876,0.056570668,0.859518766,-0.01388824,-0.643753529,0.127271339,176.3316197,292.2926763,0.530138046,down
0.649512589,0.056570668,0.75253588,-0.002892666,-0.644669831,0.095506355,180.6693125,285.5967413,356.5417339,down
0.744793832,0.06069814,0.651401639,0.14340955,-0.487677515,0.052440353,181.3105444,281.0650201,356.6921646,down
0.809284449,0.069924265,0.593158126,0.169982195,-0.218591332,0.047247998,197.9691708,278.7269712,341.8941111,down
0.806375146,0.064340033,0.574149728,-0.004772699,0.011736684,-0.003052942,192.5893587,280.5467112,346.5539598,down
0.132860363,0.0587558,0.975274801,0.002557684,-0.454353511,0.118203804,339.7433477,331.8783695,205.1900742,down
0.268630087,0.054628327,0.953098357,-0.090599269,-0.761618733,0.141416684,339.8927359,331.4028927,206.4628663,down
0.393247277,0.036661681,0.893880069,0.015691288,-0.751844883,0.09560179,341.2645623,331.9858989,207.1411314,down
0.60417521,0.036904473,0.764233291,0.087467954,-0.801630378,0.020159937,345.8917363,338.1075976,206.2377705,down
0.715457857,0.036904473,0.683325946,0.134810016,-0.436943829,0.013745853,347.2126266,337.0030587,206.6982619,down
0.789403915,0.053657159,0.628737867,0.06242248,-0.190765142,0.019549074,347.3448163,333.4748425,207.5402193,down
0.789646387,0.041031945,0.592914462,-0.005023014,0.047021776,-0.008032268,345.891271,327.0598179,207.324399,down
0.784070134,0.045402214,0.609973192,-0.008591315,0.037179723,-0.005772537,344.366211,320.9580001,207.6202964,down
0.783585191,0.040303569,0.610460639,0.016081993,0.022989161,-0.004325358,342.8361086,315.4957339,208.0904593,down
0.77825135,0.043702662,0.613384962,-0.001440674,0.024497205,-0.002464477,341.0776473,310.3373325,208.9326353,down
0.018668335,0.034233753,0.982585669,0.031985994,-0.057309274,0.004143498,343.1585891,309.9067438,211.1785381,down
0.029578403,0.037632849,0.986728549,0.006133664,-0.012080606,-0.003564722,339.2394454,302.8553828,214.551108,down
0.038791347,0.042488702,0.981610894,0.039032932,-0.158401385,-0.022580748,335.565823,297.06398,217.72272,down
0.071521543,0.040060773,0.97722435,0.043308984,-0.337995768,-0.020442721,332.7795617,292.5520527,220.2637962,down
0.167045236,0.06021256,0.948711812,0.303842992,-0.671528161,-0.078169487,338.8356326,290.5867272,217.2009755,down
0.276145875,0.094689108,0.957972288,-0.077031463,-0.829742253,0.173812434,343.199963,292.1443177,212.8897191,down
0.552049398,0.067253545,0.872922122,-0.127122417,-0.902740657,0.188167766,348.848929,298.1558882,205.5771683,down
0.591810524,0.001456755,0.777636647,-0.095662855,-0.567070186,0.000937562,351.4388146,300.0276743,200.7372143,down
0.712790966,0.007040984,0.726460338,0.064383835,-0.334330589,-0.037546948,354.6977621,299.9962622,197.7722428,down
0.757885933,0.009226118,0.690636873,0.035640243,0.108376771,-0.028921658,354.0161323,296.5872328,198.0957069,down
0.044367604,0.055356707,0.977955461,0.01908911,0.022343665,0.010510922,339.5311371,286.310298,215.4406172,down
0.097948149,0.044916626,0.990627706,0.11102432,-0.059206847,-0.020643204,332.7124175,280.4493741,221.5697557,down
0.091644555,0.037390053,0.942863107,0.129350275,-0.683816552,0.09786465,340.1589835,282.9167868,214.0915319,down
0.263538718,0.015295932,0.924829543,-0.045968041,-0.908309519,0.108249359,350.8885072,290.3277333,201.1220818,down
0.437372416,0.011168458,0.912157297,-0.14065215,-0.570501029,0.03097491,354.1241381,293.2050188,195.2431877,down
0.567080975,-0.025569946,0.793233216,-0.052687556,-0.694812119,0.095726624,354.8119326,298.0279588,192.7422456,down
0.729277313,-0.004342066,0.727435052,0.142789319,-0.541484952,-0.014534553,357.6761959,301.2143308,191.6328317,down
0.77825135,0.010682873,0.632393301,0.118049279,-0.199094996,-0.036831133,358.7684231,300.6025508,191.5712097,down
0.785039842,0.007040984,0.579998493,0.077776812,-0.176764011,-0.009645173,358.7247903,297.832991,191.6486094,down
0.793525517,0.008012155,0.571225464,0.086065009,-0.026778355,-0.005337277,358.2822082,294.4311334,191.9205466,down
-0.04368991,0.027678354,0.982829392,-0.025077974,-0.203499749,0.069570579,352.4331228,312.188488,193.4165629,down
0.106676206,0.01044008,1.059593916,0.074187621,-0.705936432,0.083620481,352.917221,314.2798031,193.1229331,down
0.234202743,0.012625214,0.967232823,-0.063867919,-0.577043891,0.024366558,353.2248263,313.9684489,191.9224454,down
0.360517085,0.006555399,0.930678308,-0.091967717,-0.40844506,0.039027322,353.3342276,312.7214715,190.9034494,down
0.43397817,-0.01760949,0.880233049,-0.040655039,-0.483581483,0.0631565,352.680117,312.2375253,190.2950572,down
0.558352947,-0.009166584,0.865123808,0.012184806,-0.509848714,0.041776218,352.7058719,311.9952141,190.5117381,down
0.613630593,-0.023881365,0.778124094,0.066551805,-0.424022108,-0.005565841,353.3727106,311.8265016,190.8904174,down
0.683697522,-0.060788926,0.698922515,0.164901122,-0.442958951,-0.01014733,353.8748008,311.4407974,190.7284736,down
0.743096769,-0.004342066,0.638242066,0.166428283,-0.460979462,0.045441408,353.7923305,311.7126219,192.0566449,down
0.824800968,0.022336917,0.588771582,0.053421326,-0.09707693,0.034467511,353.2873025,309.305431,192.6403939,down
0.038306456,0.034476548,0.975762188,-0.011024959,-0.320959032,0.079976968,347.524137,8.961143304,192.3319835,down
0.135284826,0.047344554,0.988434374,-0.117315516,-0.285528839,0.032634914,348.5738431,22.33115152,191.1564943,down
0.243415698,0.038361229,0.973325253,-0.018660776,-0.469093859,0.103800714,349.8034676,37.95423765,191.8828029,down
0.368517816,0.02840673,0.929947197,0.002719507,-0.486198068,0.062872745,351.1368136,53.05313238,192.2436828,down
0.472042203,0.002427926,0.862443149,0.04120402,-0.568970323,0.141979784,354.6348143,69.83378019,193.9227755,down
0.543563724,0.003156303,0.844165862,-0.025991159,-0.234521598,0.022555638,3.745037972,80.89916476,202.4145312,down
0.605387449,-0.007960455,0.769107282,0.003941238,-0.636776388,0.065316208,139.6087524,84.68226993,337.9791115,down
0.691455722,0.000485585,0.726947725,0.032957338,-0.537510753,0.025609963,159.798819,72.74449945,357.7755747,down
0.743096769,0.001213963,0.646527767,0.145356536,-0.499026239,-0.065103523,161.9372692,60.76513995,0.458357667,down
0.810496747,0.023065295,0.591939628,0.154214084,-0.236354202,-0.016539738,162.215176,50.46871174,2.657194383,down
0.022547469,0.010682873,0.982342005,-0.038208462,-0.397317201,0.094332308,179.7378077,359.6939639,2.319921136,down
0.168015018,0.015295932,0.981123507,0.110231787,-0.739401758,0.013087226,179.1192385,349.8699219,2.830702532,down
0.265235841,0.023550879,0.947493374,-0.090742871,-0.506662071,0.031413183,178.916095,344.7485598,2.888195436,down
0.362941533,0.028163938,0.907039642,0.032957338,-0.49688822,0.027747992,178.5201626,339.3520649,3.382633257,down
0.476163775,0.039332394,0.865367532,0.0354008,-0.446186423,0.061040148,178.2892202,333.6094092,3.922476041,down
0.564656556,0.025736013,0.793964326,-0.002167415,-0.623642743,0.131900504,178.8675187,327.7612681,2.402904733,down
0.655088842,0.018695027,0.722561121,-0.019882508,-0.795601308,0.093416005,179.9910984,317.4455548,0.676403292,down
0.767341375,0.003641889,0.650183201,-0.011330392,-0.177711129,0.014308956,179.8069156,313.6061586,0.49492634,down
0.803708255,0.01602431,0.593889236,0.158184707,-0.202145755,-0.012569114,178.6853575,310.5549834,3.455996959,down
0.818254948,0.030834658,0.567082584,-0.006303255,0.000817444,-0.001340172,178.3189315,309.966928,3.686610399,down
0.102312177,0.022094125,0.985753715,0.008982368,0.023368165,0.028065694,184.0655831,306.5438147,1.6604176,down
0.099645272,0.018937821,0.94993031,-0.008732725,-0.567033112,0.236676171,187.5611237,305.7121094,357.8652227,down
0.251173973,0.010925665,0.973325253,0.024864864,-0.612847984,0.06655021,189.6853672,300.4999272,355.8455157,down
0.352758795,-0.019056847,0.928485036,-0.028585846,-0.459215403,-0.053179383,189.7896915,296.6134266,354.5982313,down
0.426947236,-0.006754325,0.880476713,0.113134891,-0.576196074,-0.132591873,186.6331059,293.372454,357.8465291,down
0.553988934,0.029863488,0.852451563,-0.162670761,-0.453717589,0.044559054,186.5785737,289.7170393,356.5200378,down
0.62623781,0.000485585,0.748880446,-0.033778198,-0.613764286,-0.072421633,184.6967336,284.4138891,356.8355524,down
0.712548554,0.006312607,0.692342758,-0.005678397,-0.437224239,-0.105713792,178.0408472,281.870477,2.548609316,down
0.760795295,0.042488702,0.633368134,0.137264073,-0.113160208,-0.311575383,160.2038765,280.8765751,21.2715006,down
0.861895204,0.061912108,0.591695905,0.196823433,-0.136983961,-0.00033954,154.376646,281.3577347,28.03665613,down
-0.019006344,-0.00530697,0.991846144,0.023687847,0.046446674,0.075304307,195.8040419,297.5400237,356.2559136,down
-0.051835485,-0.000723678,0.975274801,-0.036493666,-0.013649542,-0.03798113,192.9629974,302.1370962,358.6071567,down
0.002424459,-0.017850716,0.96284622,-0.151641756,-0.647422254,0.090300575,192.6599419,299.6750248,357.034947,down
0.149104238,-0.03111814,0.9669891,0.000158247,-0.712784827,0.087857112,193.3817563,295.0715114,355.6222897,down
0.31178546,-0.027499752,0.957728624,0.042002514,-0.454999685,-0.045311514,191.042758,290.6129961,358.204711,down
0.390337944,-0.027499752,0.904602706,0.096674956,-0.530441523,-0.126251161,184.9989968,288.490911,4.014011675,down
0.451191843,-0.003135937,0.877065003,0.044751413,-0.275405288,-0.056612521,179.994295,288.0830258,8.420761789,down
0.549867332,-0.017368264,0.83588016,-0.125985429,-0.591833472,0.010582657,176.1908905,283.6327955,10.08396664,down
0.686364412,-0.016644586,0.733527482,-0.003201511,-0.659334123,-0.150685772,154.2736057,277.5804625,30.96415375,down
0.757643521,0.001213963,0.663342834,-0.010226462,-0.339851588,-0.008048733,147.7563075,276.8170795,36.84067093,down
0.031517968,0.031563032,0.971619308,0.029785216,-0.753101945,0.07961043,7.266581909,9.099375234,186.3172916,down
0.166075453,0.009954495,0.948468089,0.096980385,-0.684684992,0.010888089,8.475565519,26.36431846,186.2111641,down
0.281237245,0.042974286,0.919711947,-0.009310164,-0.655058026,0.02371626,10.65712367,43.34999147,188.3593133,down
0.439312011,0.06142652,0.909476638,-0.025803525,-0.454999685,-0.019960605,16.85450265,57.78374872,194.4800643,down
0.540169477,0.043459874,0.844896972,-0.114989854,-0.548156619,-0.00071835,30.19271462,72.72928179,206.0783129,down
0.59253782,0.026221598,0.793476939,0.007794064,-0.360010147,-0.001023783,71.72337934,81.80345448,247.488862,down
0.692425549,0.045402214,0.729140997,0.076516405,-0.419264078,0.035628133,147.0750371,77.43806202,324.1188272,down
0.737520516,0.030591864,0.655057132,0.053608954,-0.298923612,0.02371626,164.6677876,67.27743846,342.5681227,down
0.769523323,0.033990961,0.628981531,-0.032381173,-0.007864125,0.01003577,168.9786478,60.09016017,346.6431749,down
0.764431953,0.023308087,0.633368134,-0.006418549,0.030613588,-0.003707917,170.9053896,53.89344714,348.7997013,down
0.157589853,-0.003859614,0.954316854,0.133164167,-0.775117636,0.145648628,185.9519311,299.9122167,9.735215473,down
0.337484717,-0.073091447,0.942863107,-0.007029414,-0.589109182,-0.000959024,184.5814127,296.874333,8.257566372,down
0.433735728,-0.00410084,0.910938859,-0.026577102,-0.552457273,0.023781018,183.6381772,294.0108445,8.319563999,down
0.447555155,-0.001447355,0.899241388,-0.00977831,-0.319412202,-0.013176329,182.4855008,293.3267532,8.937089086,down
0.529744327,0.022822501,0.858056605,-0.118206888,-0.260463715,-0.059907518,177.1875927,291.9197001,12.71765856,down
0.55617094,0.002427926,0.802250028,0.002744429,-0.385996521,0.017366935,176.1669438,290.8018304,12.98735455,down
0.61847949,-0.058617894,0.769107282,-0.0555932,-0.491370767,0.054629713,175.7141159,288.7286016,11.9426609,down
0.728549957,0.003399096,0.710619986,-0.031158593,-0.429673374,-0.015008925,171.1975987,284.6571532,15.81811194,down
0.774857104,0.008983325,0.636779845,0.032676827,-0.298031926,0.01339631,170.4607579,283.3835892,16.52857626,down
0.778736293,0.002913511,0.597300947,-0.053137831,0.005871248,-0.000960531,172.6490276,284.7344914,13.155647,down
-0.013082289,0.02646439,0.979661286,-0.008544669,-0.163032994,0.035996813,335.9554101,290.4820068,201.7851019,down
0.070794202,0.029863488,0.989896595,0.075143874,-0.405546486,-0.01012351,335.7941289,291.0993056,202.9171511,down
0.180137321,0.045402214,0.98404789,0.067508057,-0.347819746,-0.009207211,336.2480035,290.0098768,204.0492413,down
0.254568189,0.036176093,0.93969506,0.01344648,-0.713117123,0.015227398,337.1166328,291.3455817,203.1533527,down
0.40149045,0.039817981,0.914106905,0.0482658,-0.421123564,0.038745709,338.854139,292.0381561,202.7890304,down
0.475193977,0.021851331,0.881207764,0.065064594,-0.264436632,-0.027227735,337.7665287,290.745413,203.9564874,down
0.523198247,0.062640481,0.855863333,-0.075127773,-0.194480866,-0.004927019,338.5020479,287.1325367,203.6132703,down
0.56126231,0.034476548,0.791039944,0.045823544,-0.411338001,0.001792499,341.1209507,287.1022721,201.0336582,down
0.670120537,0.039817981,0.734989703,0.032079078,-0.616588771,0.03539009,344.9936185,290.7714497,197.359194,down
0.806617558,0.036904473,0.679670513,-0.040610474,-0.056115162,0.002097755,344.919154,288.6462978,197.12735,down
0.105706416,0.025978805,0.960652947,0.039718308,-0.555802941,0.073263556,351.3904373,14.4317799,191.0572653,down
0.244385481,0.043702662,0.974299967,-0.057409268,-0.411027879,-0.019282527,353.7340323,30.47555617,191.8016193,down
0.352758795,0.041760322,0.914837956,0.117298186,-0.740895152,0.06104625,356.3638792,48.4753142,193.6468359,down
0.435432851,0.05681346,0.883401036,0.019865185,-0.309318811,-0.021115124,0.161580358,61.60821752,196.9309684,down
0.514955163,0.050258063,0.817115545,0.115771025,-0.565271378,0.020423714,11.11009157,76.49509976,207.2815327,down
0.63666296,0.056085087,0.749611557,-0.011594374,-0.743949473,0.124270804,127.9705199,84.06822227,323.3674176,down
0.747218311,0.05948418,0.682594836,-0.067488544,-0.223492235,0.061962549,158.4624378,74.49317131,353.096397,down
0.7678262,0.035447713,0.634830296,0.012229368,-0.197530463,0.062267981,163.9671468,64.4249124,359.1097981,down
0.774129868,0.042974286,0.610704303,0.001855973,0.068784356,-0.021112934,166.4834705,58.46654907,0.696479566,down
0.776554286,0.037147261,0.632393301,-0.054943234,0.062661722,0.011567906,167.8677176,52.68274488,1.459279414,down
0.199775442,0.011411251,0.968938649,0.105714321,-0.553701282,0.003321225,152.168036,298.5255449,19.49833739,down
0.334817797,0.042003114,0.964308441,0.103881732,-0.371358037,-0.022335116,151.2991813,296.1493972,22.72213545,down
0.407794029,0.04224591,0.915569067,-0.00912834,-0.428168505,-0.020197088,149.1745143,293.5173087,24.95951589,down
0.460889697,0.028163938,0.882182598,-0.032027911,-0.071717829,-0.011336558,151.0110566,294.6840826,21.91659148,down
0.492892563,0.004855852,0.833443224,0.053187795,-0.368903756,0.022566464,151.8139453,292.5449356,21.35888775,down
0.58332485,0.033748168,0.809073567,0.088617973,-0.336527914,0.045168478,151.9205919,289.8956828,22.06736278,down
0.647573054,0.033990961,0.76277113,0.091061436,-0.437320679,-0.048904769,146.7761481,285.8782885,28.17447568,down
0.672787428,0.052685987,0.71159482,0.21292907,-0.2332917,-0.037909195,146.1760067,285.7930136,30.5743412,down
0.735823333,0.072352186,0.671872199,0.135654598,-0.471223712,0.060745541,143.1160682,283.0589708,35.4588656,down
0.772675157,0.098088197,0.64945209,-0.047281995,0.074872106,-0.046755802,147.7283311,284.788204,30.57990097,down
0.087038085,0.019180615,0.970644593,0.062979184,-0.662442207,0.13528204,352.5892994,349.0973626,196.9338235,down
0.235899866,0.042731494,0.942863107,-0.071716607,-0.719863534,-0.008576722,354.8844752,348.7829016,195.6329729,down
0.385488987,0.006555399,0.926047981,-0.281548798,-0.591887355,-0.065692618,356.6960706,346.5753682,193.2633618,down
0.460889697,-0.011578843,0.861224651,-0.039035313,-0.372586697,-0.035760228,357.0303676,342.2679683,191.9280598,down
0.56005007,0.012625214,0.850989401,0.279530883,-0.576004863,-0.180535287,359.0488629,339.2884349,193.5974673,down
0.581385314,0.035204921,0.771544218,0.062979184,-0.496897787,0.00211342,359.5612091,335.6688718,193.6526416,down
0.693637788,0.034233753,0.6979478,0.033963084,-0.726888537,-0.02140489,1.193246321,337.2670831,193.011478,down
0.785039842,0.062883273,0.619721055,0.090773553,-0.426342815,-0.029957004,2.192028192,334.6924569,192.6979041,down
0.801283717,0.061183728,0.595107675,-0.050631374,0.077300027,0.005476599,2.061138715,328.5095255,191.8288854,down
0.798374414,0.048558515,0.582435489,-0.029243201,0.026286047,-0.016507795,1.951670206,322.529893,190.9689236,down
0.137951732,0.040303569,0.962602496,0.004965253,-0.39062947,0.017700659,4.791713663,24.90804529,184.5603757,down
0.230808526,0.033505373,0.952367306,-0.079945013,-0.575110793,0.00853768,5.595966303,39.51203305,185.73204,down
0.328514218,0.038604021,0.934090078,-0.023745414,-0.417507559,0.001512729,6.857254648,53.3328013,186.669142,down
0.400278211,0.02913511,0.899972498,-0.036573585,-0.380550206,-0.036055483,12.11586596,65.97427251,191.2111631,down
0.480285347,0.021365747,0.86999774,0.004965253,-0.370776355,-0.013758902,24.41964066,77.09542558,203.6206606,down
0.585506856,0.051957611,0.830275178,0.277411163,-0.472790837,-0.071180239,115.5963618,82.85726388,298.2476791,down
0.637390316,0.086919747,0.759115696,0.013822798,-0.441636711,0.057406902,158.7597696,73.18585945,341.9692876,down
0.711821198,0.070895426,0.674309194,-0.053983245,-0.532044768,0.094669677,170.3718425,60.95154947,353.0613701,down
0.782857895,0.073566154,0.649208426,-0.130932495,-0.019832488,0.041213535,172.5067411,54.63945406,355.1601502,down
0.753764391,0.064582825,0.649208426,0.018110007,0.020783912,-0.008875104,173.6730778,48.82787149,356.9150723,down
0.071036659,0.025007635,0.978199124,-0.097954392,-0.470351756,0.164916053,200.8745694,332.1726909,353.0283965,down
0.226929367,0.022336917,0.983804166,0.197704405,-0.576336861,-0.069350764,200.3638215,324.1057816,354.1096235,down
0.326332211,0.039332394,0.941157222,0.041933753,-0.494175494,-0.036974903,198.7118037,318.8271382,355.9164275,down
0.412885398,0.059726976,0.915325344,-0.009684362,-0.254105449,0.000287875,197.0433387,316.9251115,357.4911989,down
0.487558752,0.043702662,0.869266629,0.05537279,-0.424536854,-0.045527019,195.25693,312.1232699,358.6808961,down
0.555443585,0.051472027,0.797376096,0.101798542,-0.529300213,-0.00734794,194.0157481,306.2334475,359.9362555,down
0.674242139,0.074294522,0.741569459,0.086221479,-0.632841885,0.004563932,191.45552,298.6943803,4.159226193,down
0.771462858,0.098573789,0.639704227,-0.01212782,-0.178052723,0.027165946,190.7938112,296.5958867,4.038838559,down
0.789403915,0.074780107,0.606074035,0.01993886,-0.079984993,-0.076675624,189.6596037,295.890574,4.585696801,down
0.790131271,0.07817921,0.603393376,-0.010909602,0.045233984,0.001820538,188.4656183,296.7276205,5.183961608,down
0.000727338,0.03132024,0.960409284,-0.089100353,-0.473696023,0.092228591,342.8734202,292.4892013,201.7329876,down
0.207533717,0.094931901,0.984779,0.041930243,-0.67497617,-0.075148486,349.868526,295.0814971,198.8556611,down
0.34039408,0.079150379,0.916300178,0.006194625,-0.671005547,0.033280097,353.6804302,298.2237325,194.8392503,down
0.470102608,0.095417485,0.902896881,-0.096736163,-0.330753565,0.018619332,354.8187995,296.8854526,193.2579113,down
0.499438614,0.058998596,0.853670061,-0.025875799,-0.328615546,0.018008467,355.2451775,294.9021295,192.684995,down
0.580173075,0.060940936,0.808342457,0.042541109,-0.321285158,0.017397603,356.5357771,295.3384967,192.2606627,down
0.6509673,0.06142652,0.758140922,-0.035649642,-0.370765239,0.03725072,357.6175491,295.3402657,190.5442088,down
0.708426952,0.051472027,0.660418451,0.243210346,-0.700632513,-0.063236609,1.245714127,299.2296896,189.1613687,down
0.787949204,0.086676955,0.613141298,0.053231254,-0.146272272,0.011594382,2.227031204,298.1086643,188.9997664,down
0.800556421,0.085462987,0.595838785,-0.030144356,0.022626139,0.001515365,2.32100244,294.1331732,188.2651249,down
-0.058746886,0.020151785,0.964308441,-0.007845197,-0.069605201,0.029913388,303.5235461,289.1208115,240.4278534,down
0.000727338,0.003399096,0.945300102,-0.161172375,-0.837157369,0.00089729,310.7220873,289.181812,233.3256997,down
0.171651706,0.008012155,0.936039627,0.132959232,-0.910766602,-0.046139333,322.0710238,290.839294,223.0810307,down
0.37676096,0.071866602,0.943594158,0.134180963,-0.495072842,-0.102949806,332.9954742,290.8828501,217.1691195,down
0.473254442,0.068467505,0.870972574,0.093558431,-0.454144835,0.023499303,336.7952212,291.1321452,213.9131956,down
0.586719096,0.084977403,0.822964251,-0.235392511,-0.449563384,-0.011014582,340.6901263,292.4578371,208.4850257,down
0.661150038,0.063368864,0.768132448,-0.040221054,-0.326168597,-0.02475905,345.4013056,292.4417725,203.8579687,down
0.694365144,0.05948418,0.682107449,0.187326252,-0.53691709,0.036632907,347.5331998,292.5510828,201.7474949,down
0.765644193,0.081821099,0.645796657,0.04041316,-0.367402017,-0.076682597,348.4280126,291.7701258,202.1085933,down
0.790616155,0.095174693,0.589258969,0.015370507,-0.019817796,-0.020783726,347.8833059,288.5009651,202.1749828,down
0.003879135,0.116783224,0.98404789,-0.220423475,0.289890885,0.00181829,170.2529562,340.5887663,348.5430321,down
0.062551044,0.019666197,0.912400961,-0.019754246,-2.064383745,0.180801809,178.1526164,324.1160337,345.6366535,down
0.39373219,0.013353592,0.89802289,-0.24852328,-0.730559528,0.098640427,181.9075712,316.8800288,342.7009494,down
0.484406948,-0.000723678,0.865611255,-0.047548614,-0.466665715,-0.114246108,182.0918224,312.4448318,342.6737635,down
0.567323446,0.003399096,0.820771039,0.054465879,-0.285544187,-0.036971651,181.5450657,310.1852618,344.1281669,down
0.582597494,0.01044008,0.819065094,0.24169609,-0.330137342,0.031139819,183.4343097,306.9789046,346.0694868,down
0.620419085,0.047587346,0.758384645,0.03675079,-0.478577584,0.095891535,185.9768067,303.6819928,345.6299684,down
0.707942069,0.023308087,0.68430078,0.027587812,-0.257749796,0.044884291,188.0827452,300.7402747,344.5208789,down
0.726610422,0.039089605,0.66992265,0.022700991,0.086747438,-0.053451996,185.2158006,302.8667619,347.3827418,down
0.682242811,0.030834658,0.684788108,-0.106191576,0.328650087,-0.058338922,183.8071561,307.627694,344.9998459,down
0.077097803,0.036904473,0.954073131,-0.034720339,-0.886666358,0.154547617,331.3628541,339.068245,199.9517835,down
0.259659559,0.050015271,0.964795828,0.021173831,-0.444399893,-0.055895459,333.1525635,336.7755007,202.6859492,down
0.390337944,0.10100171,0.965283275,0.160756543,-0.368347168,-0.029628256,335.465105,335.1454146,205.760955,down
0.429856628,0.102944054,0.891686738,0.061490934,-0.296265066,0.013437744,335.9494611,331.2730781,207.6221543,down
0.492650121,0.098816581,0.845628083,0.076762572,-0.427295655,0.062612392,336.7565145,329.4555136,208.0960464,down
0.558595419,0.100030541,0.810535729,0.043470409,-0.246174127,0.038177788,336.3878807,325.8307527,209.5317112,down
0.602235615,0.099302165,0.784216464,0.006513063,-0.207689613,-0.021381574,336.4564728,323.2802951,210.7164075,down
0.640057206,0.112655751,0.755460262,-0.023415407,0.05771891,-0.001222302,334.7644591,317.1073648,212.2422581,down
0.636420548,0.111927383,0.758871973,-0.01699991,0.037551533,-0.077574253,332.5062995,311.3121269,214.4798964,down
0.633753657,0.10779991,0.765939176,-0.022492206,0.04609308,-0.000910608,329.8736612,305.8929728,216.8397814,down
-0.050107639,0.070652634,0.978442848,-0.040818162,-0.68022567,0.04918034,5.937569677,33.23229907,203.2943005,down
0.107888438,0.068953097,0.97722435,0.018130332,-0.722680807,0.003060016,14.84543324,49.26780056,209.611761,down
0.203169674,0.067496337,0.94993031,-0.031349752,-0.47497496,0.01283386,25.78666546,61.488416,219.2190368,down
0.327544421,0.068710297,0.934333682,-0.006609708,-0.517735541,-0.000299743,50.0173421,72.48036921,242.3450055,down
0.436160207,0.076722458,0.882669985,0.045619272,-0.457259864,-0.08948607,94.49469728,74.30549821,285.5793926,down
0.418219209,0.101244502,0.798594534,0.135111034,-0.364408374,-0.108728327,134.4055553,70.02742971,324.4002549,down
0.600780964,0.096145861,0.788359284,-0.021266824,-0.142336458,0.007640374,147.299846,63.50850592,337.211709,down
0.635450721,0.100516126,0.767645061,0.073111854,-0.212891385,0.0256609,155.7995519,55.92358085,345.8363605,down
0.646603286,0.101244502,0.757653534,-0.038975783,0.04488501,-0.004882312,159.8760001,50.82444507,349.7160531,down
0.637875199,0.098088197,0.760821581,-0.066750087,0.134948939,-0.070532881,161.4708629,47.12166633,350.6020499,down
0.003151797,0.046616174,0.959434509,0.078330405,-0.706517935,0.066300936,173.3859094,305.5266425,2.851073785,down
0.16437833,0.074780107,0.975274801,0.020298205,-0.605419695,0.092873573,175.1568408,300.4819638,1.748348495,down
0.260871828,0.076722458,0.967232823,0.046259984,-0.383064806,0.035757679,175.5188545,299.2603093,2.436109484,down
0.316149473,0.0883765,0.942132056,-0.001387507,-0.406888545,0.047669549,175.8186588,298.7789449,2.174261802,down
0.3949444,0.095417485,0.925804317,0.004414894,-0.122205056,-0.042121358,175.2516165,299.4811157,3.134143291,down
0.400278211,0.08959046,0.88437587,0.043815702,-0.336007893,-0.023184534,174.6865823,298.7770939,4.130732778,down
0.483437151,0.101487294,0.872434676,0.026100606,-0.316460192,0.053479053,175.3292758,298.0446449,3.89906386,down
0.544533551,0.097359821,0.830275178,0.039845079,-0.354028404,0.029655308,176.0019948,295.300111,4.449790978,down
0.606842101,0.105857559,0.782997966,0.00655169,-0.059583269,0.021407083,175.619832,296.4091152,4.993313953,down
0.612903297,0.094446316,0.786166072,0.015097275,0.046088751,-0.008218886,175.9078611,298.0762619,5.437938778,down
0.154922932,0.063126065,0.976493299,-0.008115605,-0.313710868,-0.010662348,355.2540584,299.8468108,180.9916975,down
0.236384764,0.082063891,0.956510127,0.074656636,-0.501551926,0.044315524,355.5243162,298.6817103,182.1635394,down
0.326817095,0.096388653,0.937014401,0.087484807,-0.297522962,-0.008218886,356.3006944,296.6812436,183.2706857,down
0.378215641,0.112412959,0.90557754,0.114973739,-0.328371644,-0.076024927,359.646188,294.3315629,180.9914379,down
0.447312713,0.120182328,0.860006213,0.059995871,-0.440159976,0.062641479,359.6848099,293.8071136,181.8305677,down
0.567080975,0.134992674,0.818821371,0.108559668,-0.514990985,0.03331995,359.8825439,295.919657,182.8383074,down
0.678363621,0.155630052,0.759603083,0.092677161,-0.38426581,0.036374275,1.148946354,297.4630953,184.0351068,down
0.728065073,0.159271926,0.67674613,0.007766891,-0.175960764,0.004609284,4.282213567,295.7376871,181.8372066,down
0.721518993,0.152230948,0.657250404,-0.003228124,0.008826852,0.00216543,5.508616721,291.8822297,180.8945039,down
0.72636795,0.156844005,0.672359586,-0.01819161,0.097998425,-0.023181403,7.477262509,287.9027088,179.0975731,down
0.231535852,0.080364339,0.976005912,0.023342811,-0.029359702,0.004001504,9.817781361,290.6363417,185.7687318,down
0.209958166,0.081335515,0.954316854,0.020588193,-0.021108013,-0.009434715,11.76112642,285.0460914,183.2934439,down
0.219413549,0.08424902,0.964064717,-0.001402497,0.01065404,-0.003936475,15.30543965,279.5971236,179.1073676,down
0.222807795,0.081821099,0.961140394,0.010196723,-0.051031616,0.014992973,25.55746138,275.0163002,168.6132737,down
0.231535852,0.080849931,0.945543826,0.008668881,-0.173498303,0.00582971,60.7503321,272.4321254,132.8572607,down
0.3040272,0.085462987,0.937745452,0.060897857,-0.550402164,0.066916235,53.10661276,273.1318168,140.8964344,down
0.447312713,0.110713415,0.859275103,0.169631869,-1.107816696,-0.030211339,26.13698586,281.9943902,169.8012348,down
0.645148575,0.152230948,0.752292216,0.103353001,-0.697926104,-0.02685158,26.55741986,286.8467752,170.0329558,down
0.716670156,0.166555703,0.627763093,-0.08019948,-0.107204445,0.008579317,33.1171011,284.3348297,163.2167139,down
0.733156443,0.163642198,0.671384811,-0.037735272,0.047331885,0.077905506,40.51710221,281.0124891,155.1787834,down
0.150316477,0.105614766,0.993064702,0.125671178,-0.889735401,0.019262446,17.93674612,44.83121703,195.916658,down
0.277115673,0.105129182,0.902165771,0.145524293,-0.849418283,-0.007310193,27.38493826,62.75451451,205.5832335,down
0.444160908,0.151259765,0.874871671,0.12078426,-0.629201353,-0.151779816,56.8603891,75.17116321,236.3949955,down
0.556655824,0.171897143,0.804930687,0.130252659,-0.652414262,0.059274118,124.1672247,76.9976924,304.8781058,down
0.684667289,0.180152088,0.708426714,0.071915038,-0.385466158,0.019873312,153.5600559,68.2771186,335.0257019,down
0.721034169,0.193748474,0.685762942,0.014492489,-0.108124241,-0.077553183,162.9250102,60.60751968,345.1094739,down
0.72636795,0.183551177,0.658225179,-0.011159752,0.046717528,-0.007912724,167.0677522,55.16000327,349.4387346,down
0.721518993,0.182822809,0.663586497,0.002584733,0.01525389,0.000335078,169.9805273,49.65702572,352.7298561,down
0.722246349,0.189621001,0.658225179,0.012054004,-0.003075223,-0.002412488,172.0574922,44.48646665,355.0894573,down
0.718367219,0.186464697,0.663586497,-0.00229862,0.010965779,-0.000884101,173.548864,39.90210515,356.9303053,down
0.097220808,0.010925665,0.98404789,0.042901799,-0.109365493,-0.00760298,167.5846745,1.297109059,5.580045559,down
0.255780458,0.031563032,0.954073131,0.111624144,-0.669834375,0.041877102,167.3011261,349.532228,6.157044572,down
0.347909898,0.063368864,0.90557754,-0.001385927,-0.738862097,-0.098927334,166.2049627,340.0844115,6.114200076,down
0.511075974,0.073323362,0.85635072,0.070696168,-0.680524468,0.016831631,165.5320661,331.4389646,8.386658654,down
0.671575189,0.126009345,0.766670287,0.067030981,-0.479244411,-0.1126718,163.5116005,325.0307428,11.87622877,down
0.706487417,0.131836355,0.702578008,-0.012377176,-0.034830809,-0.002104945,163.9621198,323.7313198,11.91437964,down
0.704062939,0.126737729,0.700384736,-0.027032921,0.025334699,-0.007595529,163.7093755,323.5106296,12.32423795,down
0.699214041,0.128437281,0.699897349,-0.009926219,0.043956365,-0.002707847,164.5053247,323.4629071,12.07052801,down
0.69121331,0.123338632,0.698678911,-0.00442883,0.018600589,-0.003012161,165.1595339,323.3125849,12.07041361,down
0.690728426,0.128437281,0.700384736,0.000767287,0.026840143,-0.011563233,165.8825094,323.227368,11.66355973,down
0.128738791,0.064825617,0.971375644,0.034970786,-0.118528768,-0.012782814,159.9512005,312.2903398,19.0137201,down
0.219656006,0.085705779,0.987947047,0.011757907,-0.434040666,0.002794249,158.3056986,307.8098074,21.41449744,down
0.273236543,0.075265698,0.952854693,0.012673471,-0.046125386,0.006453526,159.4829637,308.7273989,20.08356849,down
0.265235841,0.07817921,0.9491992,-0.005648624,0.004268352,-0.008811314,161.2392512,310.795184,18.28252445,down
0.269842297,0.072352186,0.943106771,0.005956799,-0.069022849,-0.002396445,162.4962656,312.3029824,17.07212613,down
0.364881098,0.070409842,0.923123658,0.048106499,-0.408358485,-0.052487396,162.0477817,310.4715799,17.38197254,down
0.376033604,0.073566154,0.891930461,0.071319379,-0.523812056,0.027841385,161.2906142,307.8808892,18.62950659,down
0.512530625,0.113384128,0.83514905,0.099419177,-0.603835404,-0.022249565,156.9432944,303.3012473,23.08042156,down
0.629389584,0.127951682,0.775443316,0.075290009,-0.347577393,-0.019806104,154.1869306,299.102088,26.3754124,down
0.645390987,0.124795385,0.751561105,-0.008395184,0.016189877,-0.011557151,155.8838365,300.0783884,24.80408127,down
0.035397101,0.097359821,0.987703323,-0.002590735,-0.012518995,-0.010333683,155.6122955,301.0007918,24.43649757,down
0.047519401,0.093475141,0.985022664,0.006877739,0.003366143,0.002798392,158.5233494,303.8206012,21.53476171,down
0.051883429,0.094203517,0.985266328,-0.00106601,-0.001826879,-0.001783802,160.9880505,306.7913579,19.38742878,down
0.061338816,0.094931901,0.988434374,-0.019081518,0.024740523,0.004324504,162.8732237,309.7914707,17.35241661,down
0.07443089,0.088619292,0.967720211,-0.052068241,-0.598952889,0.084958717,163.4261685,307.692171,16.64182421,down
0.178440198,0.092746764,0.98136723,-0.020913152,-0.147511691,-0.034768309,163.4926809,308.0455275,16.52386856,down
0.220140889,0.081092723,0.917274892,0.093013212,-0.672244966,0.054112583,162.5833915,303.5309158,17.11688948,down
0.400763094,0.090561636,0.935795903,-0.039239109,-0.712867498,-0.044847585,158.568497,296.8519915,23.79601195,down
0.529501855,0.125766546,0.810779393,0.104619652,-0.603217185,0.089542769,154.0474172,291.3261977,28.42254133,down
0.646845698,0.150288597,0.773250103,0.068578601,-0.242501229,0.034259465,153.8086884,289.5492898,29.67571711,down
0.089462541,0.055356707,0.985022664,0.024286743,-0.003040913,-0.003002709,149.5260778,289.1966813,36.57864438,down
0.095038801,0.060940936,0.985510051,0.001682553,-0.011284001,-0.000559364,155.2573989,292.4394229,30.67552362,down
0.101099946,0.058027428,0.974543691,0.009012938,-0.224170536,0.039452311,158.0369307,293.8986518,27.65345519,down
0.223050252,0.057056256,0.932384133,0.092701472,-0.602907002,-0.057064399,151.8511152,291.67242,33.72449616,down
0.382337213,0.10245847,0.952854693,0.075902678,-0.57877779,-0.037211277,142.9151104,287.0768843,43.14191659,down
0.477618456,0.097602613,0.860249877,0.117746957,-0.520745635,0.037925147,135.240464,284.3969093,51.08468893,down
0.563686728,0.122610249,0.784703851,0.05940932,-0.508528292,-0.039349306,122.7536214,282.6808106,63.20522503,down
0.645875931,0.154658869,0.779098809,-0.052370835,-0.003336858,0.012572049,126.7181637,282.8581769,59.23517075,down
0.634965897,0.135963842,0.75935936,-0.017241864,0.039412826,0.000661011,137.2992469,284.6275443,48.51482001,down
0.627934933,0.132321954,0.754729152,-0.008687023,0.040931128,-0.003308907,144.5582763,286.448903,41.20964241,down
0.144255325,0.120910697,0.980148733,0.008416098,0.026880667,-0.030182134,113.8228281,284.5125444,65.51106958,down
0.150801361,0.10488639,0.981123507,-0.025801022,0.003059227,0.001588643,126.9845138,286.8202263,53.29820298,down
0.181834444,0.115326472,0.958947122,0.08262755,-0.513121903,0.044043779,123.7829719,285.5485953,56.73290021,down
0.286571056,0.110470623,0.934090078,0.038950693,-0.397362947,0.0339645,123.2123233,284.681373,56.78333091,down
0.398581088,0.125280961,0.88364476,0.009934597,-0.776710272,0.071227282,103.7261965,281.3168218,76.90651621,down
0.553746462,0.143733203,0.801275194,0.177617103,-0.799617708,-0.023456832,67.8173171,282.905599,113.7596693,down
0.635935605,0.166312903,0.744981229,-0.036789488,-0.088250905,-0.011848375,75.11277876,282.5637138,106.7730756,down
0.633753657,0.171897143,0.76009047,-0.016016314,0.072083041,0.004644226,93.52303457,281.840588,88.62429312,down
0.624540687,0.164613366,0.757409811,0.014831565,0.041528001,-0.004517742,110.0897813,282.2660883,72.39603003,down
0.612175941,0.167041287,0.76009047,0.014221169,0.035717368,-0.012152444,123.4620077,283.4216334,59.27466973,down
0.021577686,0.118725568,0.980879843,-0.025790505,-0.146015048,0.053821001,346.7554905,287.7702851,188.9426114,down
0.089220099,0.115569271,0.973325253,-0.022125313,-0.551629543,0.035800479,345.5307155,287.9509299,190.376473,down
0.266932964,0.105614766,0.951148808,0.066450149,-0.795670211,0.044352591,347.5348467,292.7883568,189.1976097,down
0.367790461,0.131836355,0.912644684,0.282696456,-0.404716492,-0.114472374,356.9795354,293.2096906,184.2212295,down
0.48852852,0.177724168,0.856107056,0.026133038,-0.55437845,0.104522817,357.1861036,294.1058319,185.0461251,down
0.584294677,0.171411559,0.795182824,0.166937485,-0.470079035,0.045574322,357.821124,295.3670469,186.5515807,down
0.619206846,0.178695336,0.75253588,-0.008987185,0.04364479,-0.009705996,358.8859253,290.4757913,185.6195605,down
0.56005007,0.182337224,0.76009047,-0.004710734,0.03295188,-0.001459193,359.9457644,285.6932041,184.5506222,down
0.621873736,0.177238584,0.758628249,-0.00256877,0.017673839,-0.001764001,1.897994738,281.3675428,182.5694439,down
0.6158126,0.175053447,0.762283742,-0.009284075,0.008507557,-0.005428928,5.218848934,277.4768758,179.3043502,down
0.059884142,0.143976003,0.988921821,-0.016917175,0.00301088,0.003733218,1.328016305,276.9030784,181.1194493,down
0.062793493,0.142762035,0.984291553,-0.00347916,-0.096235737,0.02968966,12.58516142,272.2073507,170.040674,down
0.088007867,0.140576899,0.980148733,0.000183932,-0.084304847,0.021743264,162.0573303,272.1798729,20.78666987,down
0.162438765,0.148346275,0.968938649,0.037141275,-0.629807532,0.035487734,105.2861776,271.1366024,77.78479657,down
0.314694792,0.152716532,0.910938859,0.2020749,-0.925466299,0.119787142,5.057260319,275.7360655,180.0320832,down
0.53144145,0.19593361,0.830275178,0.138850346,-0.630723834,-0.105011269,15.16871975,282.0979701,172.356955,down
0.649270177,0.229924574,0.750829995,0.070738867,-0.333232433,-0.035067204,17.48251293,284.4047367,171.6174914,down
0.673999667,0.229196191,0.709401548,-0.033407547,0.087022468,-0.004217368,24.92474339,280.4997536,164.3731332,down
0.666241348,0.220941246,0.705989778,0.013623901,0.017988263,-0.014294709,37.63862827,277.323941,152.1969687,down
0.667211175,0.22142683,0.712082207,-0.024549939,0.062572092,-0.009101446,61.38968562,275.0716862,128.3521226,down
0.042670481,0.133050323,0.989165485,-0.272561222,0.112052172,0.191567779,218.5215242,305.7512464,285.02431,down
0.027881281,0.074780107,0.980879843,-0.037984312,0.0091209,0.048617404,212.4047483,307.1609872,292.5291579,down
0.095038801,0.051472027,0.931165695,0.046925962,-1.252010345,0.179037139,230.8790303,307.2441789,279.9329913,down
0.367547989,0.063368864,0.908989251,0.121756956,-0.97742641,0.177815408,245.628257,307.3117841,271.3710965,down
0.486346513,0.114355303,0.821745753,0.188646689,-0.457274675,-0.247652233,252.8729157,302.0777077,270.1237264,down
0.588901103,0.166798487,0.793476939,0.093046278,-0.376640499,-0.002389843,256.7258459,300.075349,270.4682479,down
0.650239944,0.177966952,0.740351021,0.200558573,-0.361368865,0.012270923,258.0525077,298.1048121,272.7528233,down
0.661634862,0.187435865,0.729872108,-0.034623422,-0.032717947,0.011658581,253.2826655,296.6166573,279.2251174,down
0.665029109,0.191806123,0.724754393,-0.008665808,0.02500329,0.005550223,247.0953611,295.5177072,286.6992636,down
0.665514052,0.19326289,0.717687249,-0.00225123,0.010030221,-0.007277062,239.9990268,294.9796112,294.6295504,down
0.054792777,0.089104876,0.986484826,-0.012329642,0.147144169,0.021735486,198.1758114,319.8883822,332.1946499,down
0.027153943,0.079878755,0.985997438,-0.019348968,0.090311013,0.023255374,195.656824,322.9630294,334.7954391,down
0.032245304,0.066525161,0.964552164,-0.057528045,-0.566979945,0.118244916,198.4056746,320.1366186,333.7804679,down
0.196381196,0.050015271,0.916300178,0.156274781,-1.244124055,0.037305273,205.3949798,310.0805106,330.3869738,down
0.432765961,0.09226118,0.889737189,0.229578614,-1.164100766,0.008900041,213.3103768,298.6933627,326.6274669,down
0.62623781,0.126494929,0.77032572,0.26897943,-0.566369116,0.007372878,218.8518322,293.1728896,324.8548723,down
0.737762928,0.155630052,0.739619911,-0.000717517,-0.093246154,0.014091211,217.6885963,292.0247075,327.2221134,down
0.686364412,0.154416084,0.717687249,-0.019953795,0.086025521,-0.011257243,212.2015912,293.2890506,332.581756,down
0.66915071,0.153202116,0.728409886,-0.035524596,0.063404568,-0.010642797,206.7490512,295.0964689,337.870795,down
0.664786756,0.146646723,0.727435052,0.000516269,0.040797271,-0.012471734,202.6228246,296.5626032,342.0124817,down
0.015516539,0.085948572,0.98404789,-0.062698923,-0.099688008,0.045553423,225.2748875,291.6828292,314.4058269,down
0.072006434,0.066525161,0.947737038,-0.033682823,-1.056913853,0.144208163,232.8315902,289.7850748,307.5877135,down
0.28584376,0.078422002,0.954316854,0.125142127,-0.559669554,-0.008202718,239.4690041,286.4665386,302.2924625,down
0.445373148,0.125523761,0.899241388,0.166375548,-0.782024503,-0.047298096,256.3170249,282.4854262,288.7631897,down
0.53532058,0.143976003,0.820283592,0.405834734,-0.753619254,-0.007897285,275.4556794,280.4854102,273.722635,down
0.64054215,0.189135417,0.754485428,-0.026349144,-0.099060521,-0.009422582,268.2653548,279.2439687,281.6782413,down
0.639572322,0.188407034,0.741325855,-0.038866572,0.071655095,-0.01522086,243.925484,279.4313003,306.0145844,down
0.632541358,0.176995784,0.74912411,-0.098704427,0.185234353,0.001883097,224.5276374,281.3959632,324.37972,down
0.600053668,0.169712007,0.811754227,-0.352213502,0.781744242,-0.097687937,204.8120232,287.906684,340.7159376,down
0.465981066,0.133050323,0.869266629,-0.238287136,0.937209487,-0.252236843,191.7483848,297.999634,350.2869698,down
