acc_x,acc_y,acc_z,gy_x,gy_y,gy_z,pitch,roll,yaw,direction
0.182561785,0.020394577,0.986484826,-0.231834307,0.316503555,-1.207416773,168.3903227,349.7941572,1.170638822,left
0.184258908,-0.043179438,0.956997514,-0.248022228,-0.036881998,-1.000944257,153.5052777,350.2256911,1.410521042,left
0.22741428,-0.04824518,0.935308516,-0.244357035,0.088345379,-0.873273432,143.9298443,351.0777085,1.655583107,left
0.189835146,-0.02774098,0.951392472,0.032059483,-0.209145993,-0.39221704,138.4596824,349.8609701,1.752100616,left
0.199290544,0.021851331,0.986241162,-0.266348183,-0.015807152,-0.361062914,133.6292907,350.522485,0.420886102,left
0.167530134,-0.027499752,0.939451396,0.076652646,-0.131260693,-0.18513374,131.4509111,348.9615827,1.437841051,left
0.217716426,0.04418825,0.969913483,-0.106997877,0.025020387,-0.078082666,131.1349875,349.4573759,1.628633528,left
0.210200608,0.032291412,0.962115169,0.002791692,0.010906279,0.009360258,131.880489,349.3165289,1.517721394,left
0.218443766,0.004370267,0.975274801,0.001800269,0.037049968,-0.00900714,132.5849957,349.2854874,1.234953377,left
0.217231542,0.013353592,0.960896671,-0.034018517,0.023641687,0.012018385,133.0531505,349.6857313,1.005912802,left
0.236384764,0.132564738,0.934333682,0.069330677,-0.008796345,-0.030383725,125.4043359,349.9797513,349.570582,left
0.260629356,0.210501164,0.952123582,-0.343003362,0.265787572,-0.750593841,122.8453509,350.4640971,348.8285776,left
0.180379748,0.111198999,0.958216012,-0.289858103,0.184542507,-1.261277199,111.7998968,350.4740641,347.9316201,left
0.193956733,0.102944054,0.979417682,-0.275502741,0.163467646,-1.248143673,104.4483251,350.1313978,348.40949,left
0.163408548,0.041274738,0.987703323,0.04459063,0.147585154,-0.995550811,96.92625829,349.2871292,350.3045772,left
0.100857504,0.056570668,0.969669759,-0.041846801,-0.194499373,-0.947292447,88.56878418,346.7504405,352.3968648,left
0.138921499,0.046373382,0.969426036,-0.314292699,-0.10439676,-0.559698462,86.28090986,345.8055453,350.6795759,left
0.136981949,-0.005789421,0.969426036,-0.147221059,0.004642688,-0.318406701,83.68790367,345.8721849,349.9178169,left
0.106918648,0.022579709,1.0052495,0.091321819,0.035796817,-0.192263022,84.90944203,345.4694163,352.8095807,left
0.077340245,-0.026293622,0.990384042,0.059251398,-0.06194162,-0.156221971,87.19434521,346.3843628,353.2789773,left
0.204624355,0.042003114,0.929459751,-0.13011682,-0.137383476,-0.026718533,106.6461502,341.4108718,278.231639,left
0.12607187,0.09104722,0.948224485,-0.264812618,0.085582331,-0.555727839,106.583251,338.7496457,280.4035845,left
0.112010017,0.06069814,1.004762053,-0.460289508,0.23493889,-1.209048271,102.7933498,330.0872685,283.9810669,left
0.074188448,0.014567555,0.976736963,-0.09041059,0.09566161,-0.766476333,100.3600812,324.7943432,288.9633825,left
0.042670481,0.017481066,0.957972288,0.084907733,0.301217765,-0.495252192,96.4201481,323.0064353,296.3025984,left
0.056732342,0.044431042,0.99428314,-0.091937751,0.18698597,-0.555116951,93.84011927,321.6374434,302.2248915,left
0.012122296,-0.037390016,0.954316854,-0.242516041,0.173546925,-0.542594194,89.94992356,319.3695645,306.4463616,left
-0.053810168,-0.104209587,0.979661286,-0.113569528,0.057458401,-0.181416422,89.21001599,320.7564412,308.6186964,left
-0.099474765,-0.14594166,0.974787354,0.024477407,-0.006510187,0.014510371,92.96901743,324.3430179,309.4276367,left
-0.068373479,-0.105174489,0.962602496,0.058322616,-0.038313154,-0.011609406,96.4215961,327.3162573,311.1037583,left
0.160984099,0.040546361,0.978686571,-0.247110009,0.205727518,-0.909886777,307.1937346,321.121467,23.76080232,left
0.134072587,-0.001206129,0.95334208,-0.213817865,0.10554561,-1.367424846,281.2274146,333.0046882,30.83649752,left
0.143285528,-0.049451306,0.999400795,-0.030558281,-0.063358635,-0.989604712,262.3264029,340.6429895,34.70114832,left
0.161711425,0.016509894,0.976980627,0.015256613,0.102491282,-0.906221569,247.2099853,349.1694638,36.9106428,left
0.136739492,0.050743647,1.009392381,0.03449887,0.112265125,-0.806650519,234.9567216,357.4957805,37.25609328,left
0.142073318,0.048315722,0.93896395,-0.112414226,0.259483635,-0.776107311,223.7118123,3.903264,34.23325987,left
0.095523693,0.017238274,0.985266328,-0.297506392,-0.083822608,-0.393400192,214.2347336,7.084089926,26.10530061,left
0.073218666,0.005584229,0.989165485,0.013424017,0.143419251,-0.171656102,208.7888462,10.18669268,23.24643956,left
0.053580545,-0.004342066,0.977955461,0.047669984,0.064770371,-0.067759469,204.2394894,11.64397331,22.41522773,left
0.07467334,0.04807293,0.990384042,-0.023643861,0.063656241,0.052673101,200.8021557,12.00613128,21.76411434,left
0.21117039,0.060940936,0.944081604,-0.669022977,0.242334336,-0.628747106,134.2499226,358.4351389,272.9187013,left
0.283419281,-0.001206129,0.956266463,0.235362992,0.056936726,-1.231671095,134.6960296,346.9901955,275.5897014,left
0.144740209,0.037875641,0.985266328,-0.047467604,0.007151209,-0.991906464,132.9973752,334.8843955,279.0777424,left
0.166802794,0.101730086,0.933115244,-0.28417787,-0.073483005,-1.060934186,132.186864,323.9134161,281.8252679,left
0.203897014,-0.003859614,1.002812624,-0.216677278,-0.152590051,-0.750614703,131.4140827,315.8362769,283.9473189,left
0.170439467,0.011896837,0.91166991,-0.35534367,-0.232002541,0.014799454,134.3167629,317.0210586,283.0565188,left
0.266932964,-0.11820069,0.977711737,-0.323578686,-0.385940552,0.039234065,140.1750844,319.7970318,279.1302324,left
0.305239409,-0.115547203,0.922879934,-0.240963578,-0.031307481,-0.005236877,140.2630163,320.9940737,281.9660518,left
0.305481851,-0.23037073,0.954316854,-0.072660528,-0.018400893,0.010962049,139.5964171,322.2955219,284.9989973,left
0.286328614,-0.17464754,0.932871521,-0.009734681,0.068577498,0.070850849,138.6665142,324.105563,289.818249,left
0.19419919,0.040546361,1.00183773,0.093756869,0.208380401,-0.407794118,173.1535053,349.2066209,2.409798528,left
0.182561785,0.008740533,1.000619292,-0.005203299,0.099340945,-0.898929775,162.2807868,351.4702719,4.744580235,left
0.151528701,0.112170175,0.938232839,-0.102636307,-0.004200708,-0.946882725,151.9588,352.5671482,6.469062128,left
0.161468983,0.04224591,0.97722435,-0.172580376,-0.112629287,-0.867470205,141.2201443,352.3217378,5.187602953,left
0.180379748,0.098573789,1.030593991,-0.205872536,-0.001451816,-1.024157166,133.7576572,352.9425235,4.984099174,left
0.186198458,0.005827022,0.932627857,-0.191517204,-0.234191477,-0.818906426,124.1242355,350.7079178,3.069866942,left
0.178440198,0.020394577,0.941400945,-0.272762269,-0.179213613,-0.392827898,119.939283,348.7343901,2.187956118,left
0.257477582,-0.054999504,0.997938573,-0.164028257,-0.176159263,-0.13565366,118.983999,347.4494232,359.6534624,left
0.298693359,-0.040043499,0.979905009,-0.040598799,0.074035406,-0.137069061,119.257753,347.099411,358.9650714,left
0.265720725,-0.030153235,0.929459751,-0.007098436,0.029498074,-0.095783152,120.4894684,346.8206557,358.52562,left
0.168984801,0.236479968,0.922148883,-0.464636505,-0.086566329,0.579222977,176.8260981,27.84431117,257.8330742,left
0.278812796,0.152473733,0.948468089,0.276648462,0.363641351,0.11710339,174.349813,28.5258616,267.9435436,left
0.187168241,0.194234058,0.904115319,-0.286263853,0.125709355,-1.324844003,174.8379803,13.49488456,269.4913738,left
0.185956016,0.227496639,0.941400945,-0.106364042,-0.209655672,-0.931446791,177.9454568,357.1837548,274.6948578,left
0.17213659,0.239150688,0.999888182,0.21281305,0.036217593,-0.853561461,174.0277149,340.9082774,279.1160119,left
0.129223675,0.132807538,0.969669759,-0.005265839,-0.088093489,-0.857837498,171.2494808,331.9830165,285.8146721,left
0.136012167,0.147375092,0.965770602,-0.263356417,-0.034642778,-0.553932071,167.3429405,325.616534,289.2152253,left
0.120980509,0.10367243,0.962358892,-0.242586985,0.013310146,-0.553015769,164.6229816,321.1213201,292.5177037,left
0.174561054,0.03204862,1.003299952,-0.161647335,0.040493648,-0.176722795,159.8763416,318.6384508,297.0723743,left
0.161953881,0.077936418,0.98136723,-0.242892414,-0.051747002,-0.286373079,155.3047457,316.3704352,301.244814,left
0.181107104,-0.018091943,0.980148733,0.121488705,0.14708963,-0.256440699,112.1761104,338.2519451,28.04704655,left
0.133102804,0.040546361,0.982342005,0.227779269,0.233832493,-0.720087409,109.5878444,344.838399,31.18779805,left
0.099160381,0.059241388,0.988921821,0.061013039,0.117462672,-0.462302268,108.2894528,348.8902243,30.90130235,left
0.111282676,0.103915222,0.966501713,0.11507462,-0.075570747,-0.617462039,105.4823884,351.6536702,31.79796276,left
0.100615054,0.169469222,0.958459735,-0.373617589,0.154114574,-0.488874912,104.4125827,356.1471385,27.56379018,left
0.067884855,0.067739129,0.988678098,0.094305202,0.086308539,-0.765596867,99.14745629,0.49464246,27.14193037,left
0.035639551,0.034962133,0.942132056,-0.282598674,-0.088398919,-0.637620628,96.35832123,2.696347375,23.62322524,left
0.063278385,-0.079845771,1.058862805,0.035662133,-0.240504354,-0.36212039,93.44428249,1.650770918,21.45292409,left
0.061823711,-0.097214036,0.988678098,-0.299397439,0.257656246,-0.297979534,93.42010362,4.927006904,15.89484058,left
0.032002863,-0.096007906,0.971619308,0.037398241,-0.01432446,-0.000868091,94.46325109,6.616482796,14.70428396,left
0.12316253,0.057299048,0.988678098,-0.062417105,-0.073884159,0.0273057,103.9314711,343.8742717,10.89612053,left
0.145467564,0.023065295,0.999400795,-0.245065823,0.113956898,-0.765902817,96.80683243,346.6099153,8.406805151,left
0.109828003,0.020880161,0.953829467,-0.016602214,0.030573798,-0.671524167,92.35277045,348.7089366,9.220124441,left
0.149104238,0.001213963,0.985510051,-0.201694384,-0.015851963,-0.706343472,89.47780039,349.0858691,6.999676045,left
0.155650273,0.014081969,0.960652947,0.104349107,0.039431345,-0.674273074,86.36309753,350.4798766,6.828563585,left
0.116858929,0.005341437,0.97722435,-0.007744666,0.091354892,-0.735665023,81.43435789,353.2407949,8.327835358,left
0.089947432,0.046616174,0.994526803,0.006610665,0.084024504,-0.480017871,80.27888113,354.4150896,9.170602154,left
0.077825136,0.038604021,0.982098341,-0.017823944,0.069363743,-0.61410284,77.77666181,356.8252775,9.319279151,left
0.123889863,0.019666197,0.982829392,-0.120143875,-0.165208519,-0.24514021,79.17380433,355.8160067,7.008337579,left
0.116131596,0.037875641,0.999157071,-0.033453591,0.001379602,-0.020902827,82.57397495,355.5241732,6.568758557,left
0.239294112,0.13984853,1.041804075,0.06061966,0.147376388,-0.616801858,15.33800087,26.46767801,12.34190765,left
0.145467564,-0.000482452,0.978686571,0.123233341,0.008709982,-0.893829226,9.888776055,30.7776247,12.44859435,left
0.252871066,0.039575189,0.929703474,-0.533752203,0.033144593,-0.735615134,11.88701534,31.00472166,13.14546148,left
0.152498484,0.080849931,1.023283005,-0.023068881,0.19471845,-0.628102899,13.59037402,33.57531458,14.94295126,left
0.072006434,0.036661681,0.961384058,0.159274399,0.362706393,-0.493101656,17.0381596,38.10521557,15.92910764,left
0.032730199,0.129894033,1.001350403,-0.049336087,-0.03832664,-0.607638896,20.15764531,38.42315746,16.59741262,left
0.016486323,0.129894033,0.9669891,0.052067548,-0.012975734,-0.640014768,22.24457546,39.30446701,16.40446319,left
0.040246025,0.123824216,0.986972272,-0.004437491,-0.24052304,-0.471415937,23.17303551,36.86410189,12.42210944,left
0.134799927,0.0881337,0.970157146,-0.176090628,-0.176382184,-0.180338666,27.58282079,33.01282801,10.09313617,left
0.121707849,0.021851331,1.00183773,-0.083018467,-0.117973521,0.033325389,35.38455315,29.55703916,11.46763831,left
0.166317895,0.07550849,0.98404789,0.108487785,0.152334347,-0.408635616,299.1946644,44.86841083,345.4217091,left
0.126314327,0.081578307,0.973325253,-0.072939195,0.028328696,-0.400999784,284.1034502,41.69480783,338.4390821,left
0.140618622,0.122853041,0.976980627,-0.044533961,0.00419952,-0.47705251,269.5964426,35.52372508,331.0666493,left
0.156620055,0.066767953,0.996232748,0.04373607,0.01733312,-0.575707257,257.007516,28.17021194,326.2599788,left
0.111040227,0.096874237,0.973568916,-0.148381054,0.061009988,-0.685663044,243.6286303,20.95869672,322.1180155,left
0.118556052,0.040303569,0.980392396,-0.253755301,0.053985037,-0.592506051,234.1289846,14.1695587,318.7745662,left
0.110555336,0.024522049,0.998182297,0.069392405,0.147752851,-0.680776119,223.1091164,6.930587828,318.3734121,left
0.078310028,0.035447713,0.967476487,-0.087905392,0.079946809,-0.279743046,216.0924358,2.850752339,319.7623686,left
0.099645272,0.008254947,0.996720076,-0.014296131,0.01580596,-0.195749074,210.8084238,358.9422518,320.8711645,left
0.077825136,0.019908991,0.977468073,0.03976544,-0.004963461,-0.260195345,204.8844915,355.7381058,323.9362358,left
0.156135172,0.044673834,0.976980627,-0.061902843,0.030483361,-0.03179203,198.0706128,357.1082249,318.5379172,left
0.161711425,0.045887794,0.986484826,-0.022502039,0.043922395,-0.289271742,194.0096555,354.5120194,320.1091305,left
0.162681207,0.06021256,0.977711737,-0.065262601,0.072633065,-0.379985213,189.7332741,352.3271422,322.7161864,left
0.138921499,0.072352186,0.964308441,-0.034719344,0.0720222,-0.368073344,185.128784,350.4149078,324.8117636,left
0.124617197,0.077208042,0.958947122,-0.17308031,0.057972297,-0.357688636,180.8359692,348.8953265,327.014684,left
0.152256027,0.128194481,0.973081529,0.151289135,0.003605291,-0.59775871,173.7413251,345.8434938,332.2567722,left
0.125829428,0.096145861,0.961384058,-0.122989371,-0.00555769,-0.654874563,167.410696,343.0730786,335.2143585,left
0.130193457,0.108285487,0.983316779,-0.145896822,0.102260023,-0.712906778,160.5887303,342.0277625,338.2397396,left
0.105463974,0.053657159,0.965283275,-0.173385754,0.101954594,-0.509488642,155.8150018,341.6317225,339.0708814,left
0.079037368,0.04151753,0.975518465,-0.088475481,-0.086497329,-0.283468515,153.5943298,341.1182818,340.471147,left
0.103766859,0.154416084,0.940426111,0.020563964,0.050031047,-1.12127018,42.15904895,19.75348082,27.26231587,left
0.147892013,0.082792267,0.961140394,-0.343817174,0.041784368,-0.624636769,42.55358459,20.10945149,21.72514469,left
0.135527268,-0.050174985,0.984535277,0.060575638,-0.022661917,-0.941981256,42.65785425,19.97429742,20.35581471,left
0.108858213,0.041031945,0.977955461,0.137544662,-0.023883648,-0.572102368,43.51973192,20.12541706,18.52932479,left
0.119525842,0.054385535,0.988921821,-0.195987761,0.004827019,-0.598369539,43.15982193,20.71344,15.99715339,left
0.105948865,0.014567555,0.94651854,-0.221644104,0.075381957,-0.606310785,44.0268598,21.91222016,12.50887077,left
0.067399964,0.01602431,0.995257914,-0.210037664,0.155710727,-0.391591668,46.39036139,23.30315062,9.256399575,left
0.050913639,-0.042455759,0.988190711,-0.144652665,-0.011686303,-0.061352801,51.02599712,22.65722987,7.723406305,left
0.032002863,-0.01640336,0.999400795,0.025310654,0.042030312,0.018911282,56.76705457,22.09433008,9.205807511,left
0.037094224,-0.003859614,0.980148733,0.048052933,0.024711451,-0.010132981,62.70416235,20.84440546,10.25936675,left
0.149831578,0.115812063,0.985753715,-0.122683898,0.126725942,-0.939869881,299.810324,356.0292465,326.0743377,left
0.144497767,0.024279257,0.969182372,-0.027694358,-0.006442677,-0.434378892,287.9409032,349.8843703,327.5045008,left
0.148861781,0.002913511,0.947493374,0.067600623,0.055865578,-0.466143906,275.4037631,345.7842735,331.0334068,left
0.169227257,0.070652634,0.959190845,0.011706449,0.101375043,-0.773409069,263.0762416,342.7232038,335.0741706,left
0.125586987,0.068224713,0.962115169,-0.233250514,-0.038513105,-0.850988984,249.343272,338.7066411,338.2409742,left
0.102312177,0.025250427,0.992333591,-0.057932187,-0.012245897,-0.758137465,234.9712152,335.0990171,340.8266447,left
0.116616488,-0.062959962,0.999400795,-0.154448897,-0.113344088,-0.436822355,224.870308,332.308306,342.9193156,left
0.143285528,-0.112411268,0.966257989,-0.154143468,0.106567398,-0.142996177,218.1848369,332.139894,342.3440805,left
0.131648123,-0.10034997,0.934090078,-0.114953279,0.007805377,-0.123038352,212.9335689,332.285652,341.0802633,left
0.153468266,-0.179230839,0.97722435,-0.079396039,-0.025866237,0.02423979,209.0482431,332.2996538,341.3331271,left
0.204139471,-0.177059814,0.927997649,0.242224514,0.091419891,-0.619612157,103.8953803,13.59716323,28.37208501,left
0.197108522,-0.104450814,0.990384042,0.112721086,0.358368009,-0.649239123,101.4468326,18.82710567,28.84547688,left
0.143043086,-0.066095896,0.978930235,-0.050685372,0.16289112,-0.536839902,98.44590707,21.74556013,26.91388573,left
0.130678341,-0.070196733,0.979661286,0.016815238,0.109745845,-0.479418606,96.89496236,22.74711346,24.03655243,left
0.12316253,-0.03111814,0.984291553,0.124022081,0.199848473,-0.441239506,97.15110811,22.89333756,23.44965305,left
0.129466116,-0.017850716,0.990384042,0.174113035,0.169916078,-0.671841145,95.82992413,23.08739519,22.36237744,left
0.069581978,0.022336917,0.977955461,-0.076647148,0.145176038,-0.414666891,94.49417136,25.74350378,19.57059055,left
0.087280527,0.016509894,0.984779,-0.119407713,0.148535788,-0.482472926,93.19948851,26.35847523,16.88025587,left
0.080734491,0.023308087,0.961627781,0.073625706,0.078591719,-0.894196093,89.45855292,27.34342266,14.21085573,left
0.021577686,-0.00410084,0.947493374,-0.021363841,-0.098253757,-0.154743731,90.43953201,25.16926246,9.59809601,left
0.20729126,0.135721043,0.980879843,-0.084893823,0.07675913,-0.341668487,34.40753557,37.55679577,353.906845,left
0.12801145,0.092018381,0.975031078,-0.130097851,0.070039608,-0.46475783,37.17828035,36.85379514,352.9026066,left
0.169469699,0.075022906,0.954804242,-0.126738101,0.05721144,-0.601286232,37.89930244,36.15549709,351.565104,left
0.156862512,0.052443195,0.968694925,-0.146591216,0.094474219,-0.51423794,39.54318212,35.27116176,349.8529753,left
0.149104238,0.037147261,0.975031078,-0.087337285,0.126544639,-0.558220208,42.45793803,34.33409396,349.305178,left
0.140133739,0.023065295,0.976005912,-0.073898256,0.030333368,-0.644657671,44.55760648,33.05183181,348.8079743,left
0.128253892,0.02840673,0.962358892,-0.309081376,-0.000209894,-0.561274529,47.13963314,31.34746738,346.7748166,left
0.118313611,-0.037148785,0.985753715,-0.232723221,-0.020063017,-0.465979546,49.8993096,29.34929213,344.9442652,left
0.163408548,-0.033771627,0.981854618,-0.140482575,0.081340611,-0.580822229,51.36309086,27.59323512,343.7910032,left
0.107403539,-0.054758281,0.961384058,-0.128570691,0.035831153,-0.33739242,54.16608097,25.58033739,343.5403745,left
0.235414982,0.159271926,0.991846144,-0.260458827,0.102162331,-0.179293126,43.69998744,28.82940886,9.330879373,left
0.163166106,-0.036907561,0.992577255,0.021760914,0.101246029,-0.375380874,47.67471699,28.60867252,8.826122417,left
0.17868264,0.006312607,0.946274877,-0.130039096,0.051460512,-0.584296823,50.03738871,28.4373099,7.80979966,left
0.158317178,-0.056688085,0.980148733,-0.024970276,0.084141806,-0.736402273,50.86022501,27.98662499,6.177582524,left
0.17019704,-0.039319821,0.980392396,-0.021610517,0.02305528,-0.533595026,49.70380227,26.68203837,3.517783278,left
0.171894163,0.004855852,0.975274801,-0.086667664,-0.01084774,-0.515269041,49.27851713,25.43724322,3.294684113,left
0.159286976,-0.053310923,1.010367155,0.070324704,0.074367963,-0.479533404,49.842339,25.51221992,2.821100354,left
0.139406398,-0.027982203,0.953585804,-0.232664466,0.115906797,-0.324679047,50.67046187,26.06466782,358.316426,left
0.102069736,-0.042214531,0.974299967,-0.271454394,-0.046583362,-0.296273828,53.88374144,24.21228295,356.4724854,left
0.13770929,-0.109999008,0.978686571,-0.145779058,0.012648232,-0.102937564,58.75351264,22.72495291,355.894927,left
0.201472551,0.086919747,0.93896395,-0.137837797,-0.005677726,-0.808181524,327.4113882,333.9489191,316.1057415,left
0.205351681,0.043702662,0.992333591,-0.063006811,0.070985861,-0.547647476,313.5698152,326.687214,319.4792675,left
0.187168241,0.039332394,0.959678233,-0.132645443,0.081676006,-0.73518312,295.6931406,320.4947391,326.5375611,left
0.165348127,0.009954495,0.969182372,0.136440694,0.084119469,-0.537568212,276.2957995,316.939069,337.4834037,left
0.166317895,0.035933301,0.979417682,-0.075224116,0.110997543,-0.524434566,259.1955671,316.3277158,346.394515,left
0.108373329,0.036176093,0.978442848,-0.047735177,0.175749242,-0.484728336,242.884208,318.0079219,354.4093856,left
0.111040227,0.052200403,0.987947047,-0.011388697,0.051743608,-0.390349686,229.4549496,320.1683346,1.838659604,left
0.088007867,-0.051381115,0.99428314,-0.095993534,-0.052103486,-0.188764125,220.4172023,321.7537479,2.572119681,left
0.090674773,-0.115305983,1.001593947,-0.076061942,-0.064140663,-0.035441972,215.3826972,323.1163672,2.251038038,left
0.121222958,-0.054758281,0.972106695,0.022377335,-0.019327786,0.008056945,210.9287445,324.2186129,3.065759651,left
0.175045952,0.167041287,0.968207598,-0.073888943,0.002445891,-0.099635474,187.9262383,326.6888669,6.944318216,left
0.174561054,0.111684591,0.975762188,-0.217442274,-0.051615681,-0.256627858,182.4112977,328.4377983,5.558303786,left
0.171894163,0.080364339,0.983560503,-0.111457154,0.041235834,-0.517772734,175.3630306,331.1393464,6.761363488,left
0.1520136,0.058513008,0.965526879,-0.086411677,0.091021352,-0.37513572,169.377244,334.4349674,8.338093448,left
0.144740209,0.031563032,0.972594142,-0.04975976,0.023215309,-0.391018212,164.4852576,336.2693137,9.097576333,left
0.148376897,0.061183728,0.984291553,-0.072056338,-0.017712664,-0.69797796,158.6887903,339.0716054,10.40891033,left
0.128981218,0.042003114,0.966745377,-0.124285318,0.102016926,-0.555951834,153.6658692,341.9311478,11.06461105,left
0.104494192,0.006798192,0.970157146,-0.072056338,0.073917121,-0.395905137,148.3943565,344.5985245,11.52847396,left
0.138921499,-0.001447355,1.000375509,-0.192091376,0.161881715,-0.573972344,142.9637823,348.2130017,9.433781296,left
0.10813088,-0.077674739,0.952367306,-0.15421772,-0.091627359,-0.200428247,140.6343054,348.0791923,6.960660297,left
0.189350262,0.075022906,0.984779,-0.157577485,0.011303436,-0.136898264,117.8916879,0.84270239,330.8060947,left
0.182076871,0.050986439,0.963821054,-0.065031394,0.044595592,-0.326877356,118.3559768,0.092914518,332.0168669,left
0.183046669,0.052928779,0.970157146,-0.001195974,0.066281304,-0.352533698,118.3045318,359.5903551,333.8369928,left
0.163893431,0.049772479,0.974787354,-0.007610059,0.062310684,-0.449355841,117.5181038,358.573073,336.0936617,left
0.169469699,0.056570668,0.971863031,-0.120314695,-0.007327955,-0.504333675,116.5253358,357.3015184,337.2168727,left
0.160499185,0.022579709,0.969426036,-0.10046158,0.0708628,-0.413009346,115.4728174,356.3678044,337.897945,left
0.150801361,0.001213963,0.979173958,-0.057090145,0.01649579,-0.352228254,114.223405,355.526767,338.9878161,left
0.155165389,0.011411251,0.993308365,-0.092825763,0.005194783,-0.41331479,112.2549923,353.8772238,339.5370299,left
0.170439467,-0.021469103,0.936770737,0.026903827,0.06658674,-0.441109151,108.9698352,352.9015483,340.5823084,left
0.159286976,-0.036183886,0.947737038,-0.270587564,-0.054364581,-0.245937705,107.5234061,351.810832,339.7196059,left
0.21117039,0.052928779,0.974056304,0.05775252,0.069335632,-0.526019394,23.22842323,359.3595388,15.42260813,left
0.186440915,0.045887794,0.954560518,-0.047316298,0.083385535,-0.544039965,25.25874306,0.594003783,15.8709759,left
0.177227959,0.007769363,0.964795828,-0.099545278,0.02932396,-0.457907945,27.76112459,1.193474705,15.13231313,left
0.164863214,0.006069814,0.970157146,0.010715898,-0.029929969,-0.530295491,30.03226323,1.575413654,14.44772327,left
0.182319328,0.01699548,0.97040087,-0.043040246,0.023520742,-0.637502313,29.63805204,2.687918922,14.10344247,left
0.185228691,0.055842295,0.978930235,-0.242182314,0.136836246,-0.53243351,31.05593784,4.618649903,12.4008223,left
0.138679072,0.001456755,0.956266463,-0.029601209,-0.049783092,-0.386742145,33.54227354,4.55782408,11.32452707,left
0.189592704,-0.01061394,0.952367306,-0.128561378,-0.029319104,-0.316187203,37.40476942,2.738734889,11.00271929,left
0.154195607,-0.107104301,0.983073056,-0.193007648,-0.200361371,-0.067259617,42.78134749,0.249021147,8.468033528,left
0.216989085,-0.098902613,0.956266463,0.07572303,0.01847454,0.032879785,49.30459137,358.8507253,9.188446877,left
0.156620055,0.011168458,0.968694925,0.012233559,0.010815479,-0.006321232,176.0515546,350.8334012,0.678354431,left
0.162923649,0.00946891,0.978930235,0.024098661,0.030354116,-0.005962757,175.9627758,351.1644955,0.958014499,left
0.161953881,0.021122955,0.979173958,-0.031162921,0.021726726,-0.011803181,175.8718523,351.3023936,0.864965071,left
0.167530134,0.014324762,0.989652932,0.154165536,0.014123589,-0.3003259,175.4519596,351.3935868,1.024436595,left
0.156135172,0.061183728,0.980879843,0.148362309,0.21723628,-0.375462323,171.3216486,353.852945,3.499002178,left
0.151043802,0.142519236,0.956510127,0.069255263,-0.004507802,-0.617975831,166.4462049,354.6063721,6.336355821,left
0.127768993,0.100516126,0.939207673,-0.040089622,-0.101635374,-0.7010535,159.138244,355.7835291,7.062144529,left
0.144497767,0.096145861,0.98404789,-0.208382994,-0.222892135,-0.673259139,153.0029993,354.0962854,6.474284661,left
0.166317895,0.159271926,0.952367306,-0.049252599,-0.181353301,-0.609423697,146.0942493,352.0891195,8.574996852,left
0.217473999,0.166798487,0.951148808,-0.103925034,-0.039632551,-0.472284466,141.4269488,351.7148354,10.26917405,left
0.152256027,-0.005065744,0.986484826,-0.029399479,0.066047132,-0.855296969,71.83331807,27.11869578,335.6151762,left
0.138921499,0.066525161,0.985997438,-0.176312566,0.150041103,-0.694333971,71.01931661,24.4323653,332.4668005,left
0.09382657,0.061669316,0.96016556,-0.184559241,0.072461218,-0.929822505,66.27101008,20.44487354,328.8537739,left
0.088492759,-0.001206129,0.997938573,-0.046809137,-0.093694128,-0.910274863,61.93086883,14.35670076,326.8352652,left
0.107403539,-0.000482452,0.962115169,-0.011989821,-0.037799962,-0.424026102,60.656417,10.8250157,326.2416193,left
0.077582695,0.014081969,0.965526879,-0.022374528,-0.143479645,-0.336672366,61.85766969,8.303933111,327.2175269,left
0.167045236,0.040060773,1.010854602,0.074397594,-0.131977111,-0.034816246,67.86363261,6.846178216,328.8409468,left
0.185228691,0.002185133,0.979661286,-0.013304066,0.039065219,0.033144403,73.52085974,7.540888282,330.2904837,left
0.17868264,0.068953097,0.978199124,-0.024982883,-0.004321665,0.025313528,78.36045174,8.084396317,332.3015424,left
0.17480351,0.07550849,0.969913483,0.009889141,0.016528571,-0.011432035,82.74978402,8.324202551,334.7140455,left
0.180379748,-0.027017301,0.996476471,-0.157182515,-0.00118652,-0.512646973,354.0521039,326.9265643,344.3827554,left
0.183046669,-0.047521502,0.992089868,0.026687935,0.293250531,-0.547160864,334.0796951,327.7891796,351.4018565,left
0.08970499,-0.061271381,0.967232823,-0.088154733,0.108769223,-0.435677946,316.8464038,329.210583,356.0296123,left
0.088492759,0.002185133,0.987215936,0.029131398,0.097773649,-0.555712998,299.6614805,331.0537061,2.584548491,left
0.108615771,0.001456755,1.006711721,-0.011185709,0.153362378,-0.79028523,279.6699608,335.6869888,9.589057109,left
0.022062579,0.064582825,0.992577255,0.285389364,0.134120136,-0.87947154,261.8038934,342.4359636,17.99908184,left
0.072006434,0.091290005,0.954560518,0.121982917,0.066924952,-0.909098506,244.7745448,349.1946177,21.75386905,left
0.03976113,0.152716532,0.995257914,0.211474657,-0.112363994,-0.99400878,231.6323592,353.3625626,24.01779843,left
0.05867191,0.073808946,0.992333591,-0.032871425,0.097773649,-0.321140707,223.7612902,355.6153455,23.80827555,left
0.027396388,0.099544957,0.953098357,-0.051808249,0.060510866,-0.258527011,217.8097639,358.2382666,25.35512044,left
0.190562487,0.02913511,0.999157071,-0.061276659,0.142672241,-0.588394284,117.952176,18.36741687,337.8169321,left
0.134557486,0.001456755,0.984779,-0.065858148,0.095330186,-0.557545602,115.2502351,16.22937641,337.6934115,left
0.140618622,0.009226118,0.976493299,-0.003244463,0.069673851,-0.460112542,113.03431,13.43067396,338.1456264,left
0.134557486,0.082549475,0.982585669,-0.061887525,-0.046085116,-0.60152787,108.7436535,9.766346622,338.1854584,left
0.123647422,0.022822501,0.93896395,0.02180101,-0.104422748,-0.517228484,106.3549861,7.315674747,339.1627014,left
0.112010017,0.072594978,0.998669684,0.012638036,0.049515296,-0.957967758,100.0299372,4.183519041,339.4534386,left
0.091159664,0.054628327,0.959434509,-0.347772449,0.033938229,-0.80830574,95.94626274,2.165706137,337.6990567,left
0.08509852,0.002913511,0.999157071,-0.144965202,0.088916108,-0.414908528,94.21959775,2.70011764,335.867217,left
0.030548185,-0.03111814,0.967720211,0.064561583,0.208340257,-0.443008333,91.17090183,2.996316477,338.3310302,left
0.033942427,-0.006995551,0.936770737,0.061812684,-0.104117319,-0.082903266,93.09634582,2.701683461,340.0927836,left
0.208988383,-0.031359363,0.967963934,-0.004160758,0.142061383,-0.495237291,9.484815615,354.957889,340.4560643,left
0.157104939,-0.03111814,0.959190845,0.016914092,0.071506441,-0.482103705,12.5142948,355.4474074,342.4060935,left
0.176985517,-0.012543746,0.985266328,0.042875864,0.114267007,-0.563654244,13.74677511,355.3340241,344.7454367,left
0.148619354,-0.061030149,0.941644609,-0.030733399,0.061427169,-0.253945529,21.57454073,353.2722543,345.8232961,left
0.146437332,0.024522049,0.975762188,-0.061276659,0.25873664,-1.019665122,20.4437551,353.7548545,346.2660545,left
0.067884855,0.011168458,0.962358892,-0.076853722,0.29691571,-0.569762886,20.33086744,356.7637046,346.484513,left
-0.016784824,0.032777,1.001350403,-0.190474659,0.287752748,-0.640317798,20.62946453,359.8065712,344.8060939,left
-0.017525332,0.021851331,0.991846144,-0.042339839,0.03729799,-0.246309727,23.52027038,1.034215078,344.4494214,left
-0.012341782,-0.002171033,0.987947047,-0.024319313,0.040352315,-0.019678716,30.00500736,2.586185602,345.1107374,left
-0.016784824,0.003641889,0.984779,-0.021571916,0.022766531,0.013154227,37.18621703,3.75493022,345.5793072,left
0.332878232,-0.062959962,0.949442923,0.310433328,0.306513429,-0.61970222,302.2070032,30.92565539,350.8350985,left
0.268145174,-0.034254078,0.947737038,0.144888878,0.279329926,-0.602903426,283.1977261,29.92071941,342.7507193,left
0.219413549,0.020151785,0.962358892,0.088078402,0.177926302,-0.755925119,267.1886575,25.9011326,338.2434655,left
0.167772576,0.052443195,0.959434509,-0.086934492,0.046284843,-0.677734375,251.2750066,19.72799055,334.19254,left
0.196381196,0.102944054,0.966501713,0.019966923,-0.160493046,-0.861299396,240.3223269,10.80125432,332.1010541,left
0.220140889,0.028163938,0.964552164,0.384348035,0.16204381,-0.316407561,231.6825748,8.060021079,330.0171464,left
0.143770441,0.109256655,0.986484826,-0.087239929,0.043230515,-0.304801136,225.7394633,3.180080582,330.822914,left
0.130435914,0.057784636,1.012560368,-0.255227864,0.008716632,-0.378104955,219.8361171,0.351067935,328.3048692,left
0.101827279,0.063854448,0.946762264,-0.02096105,-0.088105515,-0.194539949,213.041882,356.2616804,328.1583992,left
0.133102804,0.044673834,1.047896385,0.199255884,-0.060005713,0.215045199,208.8128611,353.181616,329.3669021,left
0.140376195,-0.022675235,0.956510127,-0.060972724,0.156851456,-0.807237804,92.47349404,312.8871275,348.804409,left
0.069339536,-0.003377163,0.968938649,0.209029704,0.201444626,-0.791355312,83.63541367,316.9295784,359.4688263,left
0.04461005,0.064340033,1.005980611,0.343114614,0.084463924,-1.087930322,71.52125355,320.8896367,12.54736401,left
0.031033078,0.081821099,0.934333682,0.119232528,0.005967736,-0.72232753,67.10090539,324.7584198,20.60498342,left
0.084613629,0.16534175,1.023526669,0.063643783,-0.282666117,-0.525934398,65.37524443,323.8948995,25.71191928,left
0.090432331,0.122367457,0.98745966,0.031267926,-0.23532404,-0.426363319,63.14910137,325.5124044,27.74965499,left
0.115889147,0.1539305,0.97722435,-0.023709944,0.009022065,-0.396125495,63.31006161,328.4699992,28.75320786,left
0.080734491,0.115326472,0.991358757,-0.053336911,-0.140029058,-0.216531098,66.54916271,329.9795564,26.8750339,left
0.087765418,0.104400806,0.97040087,-0.066000417,0.012881745,-0.102916978,70.6704647,330.3281454,24.78723973,left
0.102554627,0.0881337,0.975274801,-0.13393411,0.082465827,0.038647022,76.62844554,331.4667738,20.8270841,left
0.154922932,0.087405324,0.979905009,0.027639739,0.032680307,-0.293052793,37.57157972,9.339246355,32.3663028,left
0.143527985,0.100273333,0.958459735,0.009924646,0.035123765,-0.520294666,39.41356904,10.91526469,32.83405123,left
0.13770929,0.135963842,0.982342005,-0.066738941,-0.025351889,-0.533428252,41.10810141,12.03042712,30.9336672,left
0.133830145,0.123581424,0.951636195,0.13423571,0.01221632,-0.772887468,39.93398847,14.33561938,30.43334902,left
0.130193457,0.115326472,0.95261097,-0.071931295,-0.010996558,-0.398427069,43.09095655,14.40918222,28.2398867,left
0.110070445,0.13717781,0.959678233,-0.062157452,-0.026573621,-0.402092248,46.40401152,14.13193204,27.25402744,left
0.095766135,0.132079154,0.949442923,-0.024894673,0.022601029,-0.248459637,50.63142051,14.26987625,26.93566891,left
0.091402106,0.143733203,0.979661286,-0.005041551,-0.052229963,-0.346198082,53.30205862,14.73937064,25.7668562,left
0.109343104,0.142762035,0.976736963,-0.144013405,-0.197921321,-0.278697461,54.71668301,13.42288242,23.07015408,left
0.136254609,0.0621549,0.99501425,0.081395879,-0.070861354,-0.175766677,58.19266531,11.18345463,23.86667367,left
0.105948865,0.053171575,0.992333591,0.074676365,0.068415925,-0.442714781,326.5739285,45.47688506,352.72257,left
0.091402106,0.040303569,0.976736963,0.33795929,-0.079413466,-0.413698673,308.5223361,41.90378429,347.5329957,left
0.077340245,0.10779991,0.991846144,-0.100947395,0.130418748,-0.631166697,287.8959264,36.55037081,337.4150882,left
0.067642413,0.068953097,0.971131921,-0.057575963,0.020463001,-0.523043573,272.6501177,30.18057396,332.2094732,left
0.106676206,0.087890908,0.986728549,0.006870322,-0.026268192,-0.521516383,260.0381871,23.68848257,329.1583184,left
0.081461824,0.100758918,0.973081529,0.023058251,0.047646504,-0.674538136,248.8978207,17.7731648,328.0213651,left
0.027638834,0.097117029,0.973325253,-0.098503932,0.047951937,-0.454932094,239.0128841,12.61577092,327.0886037,left
0.082431607,0.063854448,0.986241162,-0.166004539,-0.076664574,-0.204171911,232.3441606,7.790780145,325.7079185,left
0.050671194,0.079635963,0.988434374,0.024585411,0.065667033,-0.297023416,224.7710927,4.233590304,327.1446181,left
0.034912214,0.051957611,0.992577255,-0.031676352,0.000472993,-0.060118366,219.6079478,2.204060851,328.0848585,left
0.134557486,0.092018381,0.957241178,-0.155376554,0.147996947,-0.584240735,117.8128402,340.6871125,336.2797571,left
0.148619354,0.040546361,0.968694925,-0.124833301,-0.02304532,-0.638302326,113.7293638,339.3906794,337.9467484,left
0.139406398,0.023793673,0.990140319,-0.00571458,0.147996947,-0.576299489,108.22348,340.027236,341.7041413,left
0.109343104,0.045887794,0.974299967,-0.054889232,0.071638793,-0.405257225,106.1154514,340.621056,343.8383859,left
0.112979792,0.053657159,0.996232748,-0.03839587,0.10248749,-0.505744576,102.4346419,341.2439932,347.046787,left
0.057459682,0.045159418,0.990871429,0.106684633,-0.02457248,-0.500857651,99.45887877,341.9032926,349.7229362,left
0.000484892,0.053171575,0.970644593,-0.01732102,0.027656497,-0.376546562,99.65624392,342.5697414,350.897091,left
0.055520114,0.012139629,0.999157071,-0.29740274,0.164184883,-0.453821003,98.10593441,344.0577989,347.9887085,left
0.038548902,0.004127474,0.995501637,0.007330269,0.066962093,-0.136954799,99.65232339,345.4042187,348.2006203,left
0.025214376,-0.012543746,0.994039416,0.01849984,0.035056066,-0.035839945,101.8906105,346.5420249,349.0155113,left
0.162923649,0.081578307,0.96016556,-0.339161783,0.093393698,-0.779568374,353.9719231,334.6043919,349.8354277,left
0.163166106,0.012139629,1.015241027,0.257653564,-0.073677942,-0.452144623,337.5762414,332.0293798,353.6035334,left
0.105948865,0.066525161,0.945056379,0.214587584,0.186856076,-0.831797361,315.788626,334.5230443,3.348177514,left
0.078067586,0.10245847,0.963333607,-0.024871593,0.088201344,-0.695574403,298.4199365,336.8766917,8.110378356,left
0.111767568,0.138148978,0.986728549,-0.255167782,0.075373173,-0.613107622,283.5556417,339.3641407,10.42469233,left
0.05164098,0.016509894,0.989652932,-0.060301777,0.052160293,-0.725506842,269.455809,342.4800781,11.14890583,left
0.016243877,0.016267104,0.970888257,-0.025177024,-0.057795454,-0.41824159,256.7643476,344.0660907,12.52677611,left
0.070309311,0.020880161,0.994526803,0.047210503,0.039942987,-0.379146218,245.8431484,346.9742726,13.67055276,left
0.062066156,0.02840673,0.973325253,-0.009973744,0.018423114,-0.132674158,238.8118033,348.1985806,13.11912427,left
0.028608618,0.004855852,0.986484826,0.051768638,0.113733232,0.016361041,234.7159164,349.197033,12.83878086,left
0.143285528,0.046373382,0.990871429,-0.002554666,0.019966155,-0.012934793,231.7758069,351.6127932,8.376584125,left
0.140618622,0.096145861,0.990871429,0.060975317,0.054174609,-0.181228161,226.1493566,352.4545133,9.528868628,left
0.128738791,0.097117029,0.983073056,0.1132043,0.022715049,-0.5474419,216.9507583,353.8189541,11.28171117,left
0.12801145,0.130379617,0.962115169,-0.130530939,0.13267079,-1.19984591,201.9065154,359.0467969,9.958589126,left
0.052610762,0.010197288,0.965283275,-0.069444411,-0.095487379,-0.968022645,186.794353,0.701212246,8.053557159,left
0.079037368,0.012139629,0.976736963,-0.128392905,-0.060057193,-0.625327229,175.6572751,0.260516702,5.088394455,left
0.08970499,0.06142652,0.985266328,-0.220938995,0.057534367,-0.318062007,171.3905652,0.799413558,3.121882888,left
0.064248167,0.012868007,0.978199124,0.083166152,0.039555743,0.020942898,169.8413827,1.078263395,3.77237495,left
0.061338816,0.065796785,0.985510051,0.008603297,0.051626287,0.020681359,169.3817246,1.240305364,3.979509828,left
0.043882709,0.057299048,0.989409208,0.020751927,0.024864765,0.018647702,168.8290257,1.177486193,4.028354646,left
0.11273735,0.025736013,0.9669891,-0.007653307,0.083813265,-0.331683517,100.4020118,16.95378457,347.211281,left
0.120253175,0.05487112,0.975762188,0.05007346,0.094503403,-0.50119859,100.3520489,16.13227332,348.1044205,left
0.125586987,0.074537314,0.984779,-0.159453332,0.090838209,-0.646279097,96.15422834,14.62233194,345.90376,left
0.034669768,0.013839177,0.980392396,-0.032087918,0.076788306,-0.672851741,91.36267306,13.14093648,345.060107,left
0.048974074,-0.02002175,0.979173958,-0.124634005,-0.023088157,-0.560452521,88.86534416,10.60162497,342.9215098,left
0.040246025,-0.042214531,0.982585669,-0.162813067,0.117410846,-0.47126621,87.11176822,9.936723983,342.3172601,left
0.030790633,-0.084911518,0.990871429,-0.080517218,-0.006038927,0.017050264,90.97475246,9.418656696,341.8386499,left
0.028608618,-0.053552151,0.979905009,0.053807348,-0.00176651,0.018116258,95.11100574,9.196595293,343.5113445,left
0.051156089,-0.034736529,0.992333591,0.043618888,-0.003920984,-0.008422744,98.61019361,8.944428978,345.4233108,left
0.045094937,-0.033771627,0.978199124,-0.0163,0.010106537,0.017645327,102.1858864,8.712446725,346.667113,left
0.109828003,0.091532797,0.986728549,-0.107701287,0.017696064,-0.109661549,87.0480289,2.94886822,329.3261839,left
0.104494192,0.084491819,0.983560503,-0.063718989,0.073284805,-0.451135218,86.5943609,1.968429356,331.7589334,left
0.080976941,0.07696525,0.980392396,-0.087237298,0.081836909,-0.387910664,87.48800919,1.741078292,332.6342836,left
0.080734491,0.034962133,0.991358757,0.034630317,0.109020412,-0.416926771,87.7872671,0.54262139,334.7111922,left
0.07467334,0.042974286,0.989652932,-0.010268278,0.098635703,-0.506113052,88.0676532,0.197425297,335.7972639,left
0.052853208,0.021122955,1.003056169,0.149472982,0.083364077,-0.52688247,85.52857818,358.9773127,338.7550603,left
0.021820132,0.106585942,0.969182372,-0.038062647,0.022277553,-0.413567007,85.31608417,358.5340379,340.4782453,left
0.019880565,0.07016705,0.983804166,-0.036230054,0.087029263,-0.510083675,83.72963613,358.7858704,341.3645067,left
-0.018265838,0.034476548,0.991115034,-0.140993446,0.020750389,-0.378747702,83.72766903,358.3243397,340.6942722,left
-0.003208863,0.027192768,0.999157071,-0.015338983,0.017050717,0.018115612,87.58596093,359.3066429,341.0171985,left
0.097948149,0.063611656,0.982829392,0.026005413,0.016429406,-0.025327532,81.94741438,10.36705237,345.9670528,left
0.097220808,0.074294522,0.986241162,-0.013395393,0.05857911,-0.302660376,84.04070343,10.51166369,347.2358227,left
0.082189165,0.04807293,0.978442848,0.115802601,0.140435055,-0.794406891,80.44130303,10.06256595,346.817349,left
0.052125871,0.077208042,0.983316779,-0.211621165,0.044529207,-0.88725841,74.33673266,8.579740418,344.0075697,left
0.041943144,-0.017127039,0.992577255,0.064184487,0.105921164,-0.92391032,69.35738132,6.919747891,343.027289,left
0.020365456,-0.024363814,0.99160248,0.1607012,0.137991592,-0.671928406,66.03434403,5.99925653,344.9481226,left
-0.067632966,-0.031600595,0.972106695,-0.164584547,-0.014113856,-0.165826529,67.98904172,7.10481272,343.3231506,left
-0.027892428,-0.037148785,0.990140319,0.006891031,0.003609903,0.06207604,73.63327782,7.732543391,345.3822477,left
-0.055538021,-0.020986654,0.976005912,0.043235488,-0.006167661,0.074068204,79.71078014,8.1625832,346.6886981,left
-0.052329157,-0.01881562,0.970157146,0.00126747,-0.089938708,0.12674062,85.53253969,7.684029411,347.6940328,left
0.163408548,0.07162381,0.993552089,0.037333418,0.081537135,-0.213757485,56.17837764,15.05055065,345.4230393,left
0.136012167,0.10100171,0.959434509,-0.104387313,0.153313801,-0.774837196,55.79461322,15.01732348,344.821578,left
0.114192024,0.053899955,0.978442848,-0.13523601,0.048550412,-0.820957541,52.22039913,13.29987327,343.6694736,left
0.100857504,-0.035942659,1.006468058,0.015953135,0.043358058,-0.614485085,50.88878886,11.55909882,343.4222976,left
0.102554627,0.046373382,0.982098341,-0.067735404,0.167974561,-0.393351853,51.68768536,12.15408257,344.0690431,left
0.037579119,0.025736013,0.989165485,-0.077814683,0.064127475,-0.526520491,51.9761823,12.03469343,344.5729301,left
0.047761846,-0.052828472,0.990140319,-0.221368015,0.042441756,-0.4920066,51.83295323,10.91597418,341.7437923,left
0.030063294,-0.073091447,0.98404789,0.026948709,0.008844169,-0.216506377,54.59007862,10.14030546,342.0612321,left
0.024487037,-0.080086999,0.97722435,0.01146704,0.040635988,-0.14243935,58.8950205,10.2039466,343.1890176,left
0.032730199,-0.078157187,0.985753715,-0.005249847,0.024216834,-0.019032491,64.85011217,9.863821105,343.9341861,left
0.099887721,0.023793673,0.975274801,-0.079164535,0.259399951,-0.799718261,315.2731141,344.1932176,324.0874357,left
0.043882709,0.006555399,0.936770737,-0.044650652,0.156469166,-0.639060736,299.0971634,338.7340728,327.945591,left
0.035881996,0.019666197,0.999157071,0.10898196,0.288721502,-0.415178597,284.4301108,337.7368123,333.9676987,left
-0.047886115,0.001699548,0.982342005,0.054309517,0.113097727,-0.432588249,270.1201064,336.6865495,339.446465,left
-0.065411448,-0.002894711,0.98136723,-0.212027729,0.126536757,-0.364171356,256.3825059,337.497158,343.1677484,left
-0.100708947,-0.078639641,0.982098341,0.056142114,0.012915827,-0.244136333,246.5639724,337.8030122,347.4145927,left
-0.082689941,-0.047280274,0.97381264,0.035764951,0.008173686,-0.107692733,240.1746856,338.0064681,349.6433457,left
-0.073803857,-0.038596142,0.985753715,0.012412995,0.016636796,-0.045220371,234.7086491,339.0641246,351.5843574,left
-0.070101328,-0.035460208,0.986241162,0.015918292,-0.007234633,0.024754928,230.0642024,339.7698915,353.1839766,left
-0.059981063,-0.015438457,0.987947047,0.007007599,0.005014459,0.015605622,225.6988373,340.7542071,354.6554346,left
0.126556769,-0.033530399,0.9491992,0.055571385,0.043193538,-1.011869788,101.9509484,12.01480904,21.11574155,left
0.150316477,-0.020504201,0.979173958,0.276399165,0.112832174,-0.622137725,97.17557385,14.14495977,21.90903388,left
0.132617921,0.064340033,0.959921837,-0.046748541,-0.089364216,-0.500270069,94.59661736,13.15950008,20.58275116,left
0.165590554,0.005098644,0.953585804,-0.318583578,-0.156864837,-0.433991194,93.38578875,10.4688256,14.81519257,left
0.196623638,0.053899955,0.978930235,0.112992719,-0.095472872,-0.42024672,93.52748102,9.514380943,14.47802029,left
0.203897014,0.101487294,0.990627706,0.100775421,-0.028888565,-0.503324449,91.11948417,10.2507906,14.40475968,left
0.184986234,0.052928779,0.985510051,0.033885673,-0.130292192,-0.149022564,91.76368029,7.970573776,13.51793474,left
0.194926515,0.097117029,0.954073131,-0.001876608,0.047992006,-0.040023237,93.58163076,7.06293555,14.40620426,left
0.199048102,0.078422002,0.963089943,0.002923861,0.046095118,-0.018006278,96.93918783,5.652319206,15.04815837,left
0.202199891,0.102701262,0.977955461,0.057374783,0.021618519,-0.081065312,99.27827491,4.999760798,15.14804306,left
0.190320045,0.012382422,0.977468073,-0.131993443,0.194798827,-0.638785303,345.258138,23.04548515,318.8453065,left
0.175288409,0.004613059,0.955535352,-0.162842125,0.100725569,-0.48576355,330.4307109,16.3931541,314.2499928,left
0.185228691,-0.003618388,1.000131965,-0.163452998,0.19876945,-0.727360785,316.6309557,8.454233131,310.9670965,left
0.149346679,-0.01061394,0.964552164,-0.072739512,0.05552154,-0.781422317,302.8666868,359.2097203,309.7427202,left
0.154195607,0.002670718,0.980392396,-0.01776164,0.092478886,-0.695595741,288.8010289,350.0348163,312.8707658,left
0.128496334,0.002670718,0.988434374,0.127013415,-0.019004021,-0.654362381,275.0929964,341.4312616,317.346015,left
0.150558904,-0.046797823,0.987703323,-0.147570506,-0.158281296,-0.416735768,268.0505386,335.0389763,316.1022171,left
0.158074737,-0.032806721,0.976980627,-0.099617586,0.152649105,-0.272877008,254.7901361,331.2880157,319.7209914,left
0.15395315,0.001213963,0.985510051,-0.031584766,0.05286558,-0.01532821,247.9830671,330.5054673,321.9168767,left
0.134315044,0.006069814,0.979173958,0.016566224,0.01049475,-0.013442976,241.5195088,329.7702589,325.1759424,left
0.187168241,0.022822501,0.979905009,-0.016725929,0.026988111,-0.264508575,199.540087,313.1705018,344.0641049,left
0.165105671,0.000485585,0.939451396,0.069100633,0.025155516,-0.625835359,184.7611969,313.7570341,355.4095289,left
0.161953881,0.03132024,0.973325253,0.106974281,0.034318496,-0.410505384,176.1884726,316.060611,3.867417459,left
0.120738067,0.082306683,0.961627781,-0.119962156,0.167792559,-0.619726717,167.5943734,321.4435514,11.10119354,left
0.104979083,0.055113915,0.953585804,-0.204261571,-0.073499225,-0.603538811,158.6141636,324.5374222,14.72213978,left
0.163166106,0.002427926,0.999400795,-0.18318671,-0.180095196,-0.552226126,151.341706,325.3681337,15.72231512,left
0.168742359,0.048315722,0.98404789,-0.029859532,0.11434184,-0.662181854,142.9509416,330.4563583,19.46013273,left
0.160256758,0.049286895,0.994526803,0.256025404,-0.12481191,-0.29108122,139.355612,331.2506819,23.76119335,left
0.157589853,0.097845405,0.98136723,-0.226863563,0.113425545,-0.411421657,136.5527619,334.4506648,22.2294944,left
0.134799927,0.045402214,0.981610894,-0.157835811,0.016908836,-0.143251836,136.0360171,336.7833008,19.03232554,left
0.175773293,0.008012155,0.967963934,-0.037047602,-0.048490077,-0.0954272,126.1885236,338.3894403,4.721147563,left
0.19298695,0.09226118,0.968938649,-0.077670142,0.183333278,-0.274716169,126.3829381,340.8143401,4.072106276,left
0.097463258,0.01505314,0.954316854,-0.226721257,0.107585989,-0.707819641,119.6554749,342.4985828,4.066693778,left
0.133587703,-0.04173208,0.986728549,-0.131120846,0.139350981,-0.819913387,114.6679479,345.0189636,4.659610547,left
0.115404263,-0.056929313,0.974056304,-0.065758266,0.131104305,-0.730421662,109.0835715,348.1989947,5.220252965,left
0.110070445,-0.045832921,0.985510051,0.024344359,0.021453992,-0.760354042,102.2443802,350.4050561,7.885602807,left
0.12243519,-0.109999008,1.011341929,0.257389456,-0.23144424,-0.614051819,98.93160183,349.3873323,9.918972321,left
0.109585553,0.019908991,0.987947047,0.262276381,0.18424958,-0.508677542,96.98302399,351.690023,12.79926992,left
0.085340962,0.022094125,0.98404789,-0.044619862,-0.074057251,0.014049338,98.78527868,352.7592055,11.78743375,left
0.092614345,0.015295932,0.979905009,0.005341694,-0.009918317,-0.089575827,101.0121936,352.840349,11.4085401,left
0.173348829,0.041274738,0.976980627,-0.041915204,0.020401821,-0.011560772,98.42843545,359.0497655,7.031927345,left
0.167772576,0.04151753,0.971619308,-0.249609396,0.130662993,-0.364640892,99.9580973,359.794401,5.266736671,left
0.171894163,0.043702662,0.993795693,-0.160117626,0.139520541,-0.543929815,99.70198569,0.857430466,3.529973885,left
0.138436615,-0.014956006,0.968694925,0.04177333,0.139520541,-0.722913325,97.77927378,2.003350619,3.409731179,left
0.121465407,-0.024846269,0.959921837,0.060404722,-0.013806634,-0.742155612,95.02834679,1.779208677,3.085899531,left
0.115889147,0.00946891,0.970888257,-0.024505546,-0.141477466,-0.50911051,94.10441344,0.375860321,3.248445653,left
0.16437833,0.025493219,0.983316779,0.152339935,0.021928985,-0.50758332,90.8191949,0.124945811,4.512635975,left
0.144982651,0.052200403,0.960652947,0.152339935,-0.205618322,-0.312717348,90.99955288,358.629018,6.856493509,left
0.210685506,0.057056256,0.936770737,0.151118204,0.025594175,-0.457797825,88.90032156,358.436537,8.414055397,left
0.147164658,0.104158014,0.958703399,-0.148511186,0.198774472,-0.363724589,87.59280478,2.152350982,7.089854606,left
0.22935383,0.110956207,0.972106695,-0.219371557,0.297734618,-0.465433657,5.686424902,14.30718359,300.5291058,left
0.179652423,0.064097241,0.988678098,-0.127741769,0.173423573,-0.988945186,6.353102591,9.937608492,299.200552,left
0.092856787,0.000485585,0.957972288,-0.288399339,0.094927385,-0.675571263,8.452422277,6.374861439,297.2767814,left
0.097463258,-0.084911518,0.978199124,0.283981413,0.035062585,-0.754372895,13.51611791,4.627210264,299.9048538,left
0.091402106,0.124067008,0.983804166,-0.092006154,0.037506048,-0.659383357,15.94016913,1.84548958,301.3727434,left
0.040730912,0.052928779,0.976005912,-0.207154259,-0.003116492,-0.468793392,20.47121075,1.163526674,301.0017822,left
0.052610762,0.049286895,0.999888182,-0.49975872,0.081488341,-0.400376499,24.69107921,1.636577038,297.8935612,left
0.036366891,-0.079363316,0.996232748,-0.119393386,-0.003870614,-0.051995955,31.44671686,4.381679051,297.6576533,left
0.019638117,-0.058376666,0.980879843,0.043470155,0.058428802,0.057538912,37.65563203,8.548745874,300.4015178,left
0.024729483,-0.058859117,0.979905009,-0.015608935,0.018985108,0.04257381,43.94100433,11.70970193,303.4166434,left
0.140618622,0.168740839,0.972350419,-0.563555062,-0.129455149,-0.738417447,48.24569007,280.8781666,219.7195394,left
0.08970499,0.068710297,0.979905009,-0.054398879,0.246226981,-0.750329316,165.6267462,278.7787713,97.76803129,left
0.033457536,0.071866602,0.973325253,-0.329899132,0.011960156,-0.824854851,177.784196,292.2830525,78.79136838,left
0.080249593,-0.026293622,0.994039416,-0.323179603,-0.048515506,-0.707874179,175.9407963,305.5202119,73.22180673,left
0.065460399,-0.04052595,0.957484901,0.225988284,-0.046072043,-0.802558303,172.6251766,317.4314505,71.99665521,left
0.013334526,-0.003859614,0.952854693,0.045477591,-0.12090303,-0.5685969,169.8466693,325.1189308,70.05485975,left
0.102069736,0.039089605,1.030593991,0.196666732,-0.011863589,-0.290347755,168.9373252,331.9202744,67.96737636,left
0.066915073,0.043459874,0.959678233,-0.120689347,0.176179349,-0.054627821,170.1255049,334.4278725,62.01979789,left
0.050186306,0.065068416,0.966257989,-0.025362834,0.244674176,0.164885089,170.6888452,339.2001462,57.9579322,left
0.043155372,-0.02291646,1.050820827,0.052217051,-0.350308567,0.247962758,168.6925995,336.3599366,55.19939638,left
0.196381196,-0.274032623,0.922392607,0.134378418,0.222072169,-0.550438106,117.2925847,43.98905471,8.323522093,left
0.13770929,-0.219756782,0.969182372,0.715616763,0.146019444,-0.574567258,109.3788065,43.98692027,7.922173348,left
0.175530836,0.144704372,1.052526712,-0.378137529,-0.089469105,-0.115502059,109.4287693,41.95574837,17.10673982,left
0.205594137,0.100273333,0.963333607,0.221121281,0.12738806,-0.500041723,106.1758166,40.14065292,16.49957186,left
0.091886997,0.127223313,0.958216012,0.33413136,0.104786038,-0.771571338,96.53695799,41.66739145,13.57130499,left
0.109343104,0.130136833,0.982585669,-0.407153606,-0.197592258,-0.130773693,97.47734527,38.09627485,7.702818407,left
0.143527985,0.111441791,0.957241178,-0.556204677,0.202219054,-0.556852162,93.25596734,37.26211751,358.3546563,left
0.01187985,-0.089012355,1.051308274,-0.300557643,0.231846005,-0.204688385,88.55667425,36.55236523,348.3556254,left
-0.025424073,-0.137739986,0.949686646,0.061074592,-0.057093244,-0.531501293,86.17973427,33.77230748,345.7729593,left
0.0237597,-0.17199406,0.995989025,0.001353696,-0.054814268,0.014692987,90.43926563,30.80525623,347.299942,left
0.126799211,-0.090700939,0.990627706,-0.171215743,0.236873895,-0.653288186,355.0242584,353.2687051,282.5465701,left
0.128738791,-0.120371722,0.944325268,0.238674834,0.212744713,-0.605029821,341.7384681,340.3569394,285.6106612,left
0.080734491,-0.060065247,0.970157146,0.268912673,0.147992998,-0.690245509,327.8522052,328.0148422,292.7931037,left
0.056005009,0.003641889,0.947493374,-0.024302645,0.002607068,-0.581511497,314.5730914,317.4190195,299.7090801,left
0.084613629,-0.061512604,0.986241162,-0.097606473,0.170900449,-0.495074093,297.4978542,310.3449653,308.2972575,left
0.064975508,-0.052104793,0.978686571,-0.084167436,0.090571657,-0.582122386,276.3408514,305.8884888,322.6170189,left
0.045337386,-0.039802272,0.992820978,0.030675227,0.094847724,-0.522868454,258.3685337,304.085353,335.2202,left
0.009697837,-0.061995056,0.999644458,-0.100049935,0.090571657,-0.35396421,242.9371009,305.1371065,345.232448,left
0.058187019,-0.091183387,0.969182372,-0.155333251,-0.020911243,-0.125195146,231.1528526,307.2706664,351.4072156,left
0.006303594,-0.112652488,0.979661286,-0.164190784,0.016351536,-0.178645864,221.5677886,309.7591502,355.1307244,left
0.028123727,0.079150379,0.982829392,-0.11990305,-0.084746659,-0.208578259,169.1113448,297.7201905,0.687608857,left
0.072006434,0.054142743,1.0052495,0.187667593,0.063388154,-0.389394373,160.5288842,302.3355679,10.93904912,left
0.04048847,0.053657159,0.965039551,-0.125400841,0.04842196,-0.390921533,156.2263568,306.8840709,14.14202194,left
0.019153228,0.025493219,1.001350403,-0.013612502,0.030706868,-0.305094987,153.66479,310.7655957,15.27355632,left
0.027638834,0.035204921,0.996232748,0.199579462,0.088433638,-0.453535229,150.7216205,315.0637415,18.53798206,left
-0.003208863,0.056327876,0.984535277,0.089012861,0.06980224,-0.372901022,147.3779014,319.6563265,21.29359114,left
-0.050848145,0.049286895,0.959921837,0.1033682,-0.078027144,-0.419021338,143.7540216,323.7883314,23.77119275,left
-0.014316468,0.049044099,0.961140394,-0.260707498,-0.223413065,-0.586703837,137.76329,325.8695345,22.90044437,left
0.019880565,-0.027258525,0.997451186,0.079239018,0.01329721,-0.476748109,133.3667518,329.7253197,24.45343131,left
0.003879135,-0.002894711,0.973081529,0.000131967,-0.052370805,-0.418105036,129.6151065,333.4420935,26.19641021,left
0.106676206,-0.039802272,0.995257914,-0.038657978,0.138524592,-0.356102228,96.061932,5.09088534,13.78309379,left
0.056247454,-0.036907561,0.949442923,0.188583896,0.095153153,-0.412301838,96.22727039,6.400634304,13.97444922,left
0.047034506,0.010925665,0.979905009,0.030675227,0.166318953,-0.478886127,96.45166259,7.963005072,13.21849071,left
0.019638117,-0.00940781,0.985022664,0.008378645,0.098512918,-0.359156549,97.28620242,8.85353965,12.72461937,left
0.026669051,-0.014956006,0.984535277,-0.0145288,0.131499633,-0.42513001,97.62953554,9.993052553,11.52376881,left
0.0237597,0.036418889,1.000862956,-0.009336445,0.028568842,-0.574791968,94.51001739,10.44723708,11.94424208,left
0.009940282,-0.01061394,1.00183773,0.081682481,0.080492385,-0.691161811,91.81989275,11.43043001,10.88156113,left
-0.02270888,-0.014473554,0.94651854,-0.06461975,-0.052370805,-0.59739399,88.15778437,11.67445986,8.526863655,left
-0.000493671,-0.054034602,0.996232748,-0.326986372,0.084768444,-0.533864021,86.32529926,11.42114095,5.467882754,left
-0.025670907,-0.125196248,0.967963934,-0.05881653,0.078354359,-0.205218494,87.37917013,11.65866675,3.442189732,left
0.106433757,0.023793673,1.009392381,0.029148066,0.073467433,-0.344190359,38.65427057,16.92364294,353.0884142,left
0.07855247,0.037875641,0.986728549,-0.228942513,0.026125379,-0.499961019,40.00440089,16.21598241,351.2573476,left
0.048246738,-0.023398912,0.960652947,-0.000173466,0.113784537,-0.397335619,42.20302854,16.83737765,350.7252801,left
0.029335955,-0.031359363,0.979173958,0.033424124,-0.027630761,-0.589147329,44.12510525,16.54505409,351.5254769,left
0.084856071,-0.009649036,0.987215936,0.264636636,-0.073140219,-0.639543712,42.70808005,13.48870495,352.9724273,left
0.03733667,0.004855852,0.959190845,-0.230775103,0.203276306,-0.686885774,40.9510856,14.67550496,350.2535864,left
-0.008886083,-0.036183886,0.974543691,-0.152584344,0.04261874,-0.522868454,40.72443944,13.81053236,348.1560029,left
0.01187985,-0.075262479,0.99769491,0.150099382,-0.056341428,-0.331667632,42.97205662,11.62853623,349.7209777,left
0.027881281,-0.079122096,0.985997438,-0.044543151,0.019401964,-0.018307567,48.48762562,11.10232052,350.2003596,left
0.013092079,-0.03401285,0.986972272,0.049087144,-0.030803254,0.049405694,54.87793011,10.585364,351.871,left
0.06594529,0.108285487,0.992820978,-0.145805448,-0.023561116,-0.09020713,64.04147241,9.046333692,327.7165781,left
0.043640263,0.035933301,0.988190711,-0.223996207,0.082424,-0.414271146,65.23735657,8.232146969,326.946044,left
0.030548185,-0.024605041,0.979905009,-0.024548706,0.126711741,-0.424961269,65.75495514,7.541807797,327.0728635,left
0.014789201,-0.001447355,0.988678098,0.014241237,0.050964445,-0.547745168,64.62821298,5.925254419,328.7216917,left
0.028123727,-0.017127039,0.982342005,0.25706017,-0.033334959,-0.64975971,63.4394732,2.395206469,332.0592653,left
0.005818702,0.016267104,0.987947047,0.006299989,-0.003707994,-0.303093672,65.55080079,1.627025445,333.8000381,left
0.016728768,0.010682873,0.981123507,0.122058958,-0.079760715,-0.466500103,66.40718356,359.9229956,336.2493627,left
0.016486323,-0.001206129,0.979661286,-0.206891984,-0.060213033,-0.269190639,68.25300121,358.6137377,334.7572157,left
0.054792777,-0.019298071,0.991846144,-0.114040464,-0.12129955,-0.269190639,70.71812576,357.0051104,333.9295897,left
0.084613629,-0.060547702,0.976005912,-0.211778909,-0.017757896,-0.252697289,71.7856092,356.3145665,332.6631651,left
0.130435914,0.081821099,1.005005836,0.046006233,0.170999467,-0.495516181,353.7627229,352.0069959,337.896637,left
0.074188448,-0.019539297,0.950905144,-0.028824762,0.061043721,-0.485131502,337.3587528,348.7734289,338.1913358,left
0.064005725,0.013596384,1.020846009,-0.113735035,0.290423602,-0.604555666,318.9647801,347.7337896,340.5279435,left
0.026184158,0.00946891,0.993308365,-0.002557557,-0.033029526,-0.486964107,302.7088787,344.6879692,344.3521476,left
0.014061864,0.028163938,0.978686571,0.169706449,0.074482754,-0.629601121,285.9201029,343.5626631,349.7240197,left
0.016728768,0.064340033,0.964064717,-0.034627981,-0.010427512,-0.675416052,268.272226,342.3947964,354.4436932,left
0.017698551,0.097845405,1.00793016,0.19597365,-0.074568361,-0.982681215,248.4902087,342.361699,3.265322624,left
-0.011848111,-0.01350865,0.989896595,-0.438409925,0.188409135,-0.33669126,238.1362293,345.0126337,359.9232589,left
-0.037272185,-0.121819079,0.979905009,-0.039151087,-0.089531273,-0.023826387,232.2225559,344.9264009,359.6632279,left
-0.018512674,-0.024846269,0.978930235,0.036137983,-0.001783049,0.058025043,227.931831,345.8678844,0.391740324,left
0.053338103,0.151745364,0.99428314,-0.186522394,-0.052790299,-0.372024089,167.535101,339.5064836,4.803850055,left
0.048004292,0.048801307,0.993308365,-0.476683378,0.091679335,-0.587659538,160.8909662,341.6943878,2.321451739,left
0.031760417,-0.035701431,0.971375644,-0.087867662,0.149100661,-0.669820905,152.6844393,344.9399434,3.019772414,left
-0.010860768,-0.030394463,0.986241162,0.184883669,0.206216559,-0.677151322,145.2282086,349.1630315,5.908745851,left
-0.029126607,-0.007960455,0.976736963,0.305834979,0.106950961,-0.670431793,140.6205493,352.5868106,9.110777381,left
-0.045911428,0.035447713,0.966501713,0.376389921,0.074269675,-0.608428955,136.2856468,354.9995639,12.52939549,left
-0.052822832,0.046616174,0.976493299,-0.105582751,-0.169771001,-0.569028139,131.13175,355.6378122,11.33694947,left
-0.036284842,0.001213963,0.969182372,-0.013952966,-0.015222086,-0.449909389,126.3205375,357.2412354,11.05701332,left
-0.041962057,-0.012784973,0.999157071,-0.106499054,-0.024690496,-0.328347206,123.9953635,357.7440282,8.29496678,left
-0.054550678,-0.076227389,0.96284622,0.00421714,0.061450269,-0.001102125,125.0916088,358.6775591,7.614096811,left
0.072248884,0.074780107,0.990140319,-0.023232991,-0.033456028,-0.098486014,115.4905212,1.512408574,345.8689789,left
0.063520834,0.052685987,0.975518465,-0.008202625,0.028898578,-0.036846969,117.7503986,1.798752943,346.6377526,left
0.049458966,0.084977403,1.000862956,-0.048519731,0.110449091,-0.623277605,112.6590663,2.048960275,346.741224,left
0.029820848,0.032777,0.983560503,0.078540236,0.18192032,-0.411307365,110.647678,2.880966748,347.8664131,left
-0.037272185,0.028163938,0.994770527,0.089230381,0.100064382,-0.552111804,107.4033655,3.170868365,349.6623285,left
-0.041468389,0.035690509,0.969913483,-0.085477076,0.027982282,-0.474531919,105.3910278,2.919807686,349.6463963,left
-0.03579117,0.00849774,0.980879843,0.111526959,-0.041045487,-0.432382226,103.6234705,1.913236518,351.7727819,left
-0.025917742,0.043945454,0.999157071,-0.021947091,-0.007447904,-0.494995922,101.1400889,0.810880859,352.5229552,left
-0.027645594,0.022336917,0.989165485,0.101447687,0.023706224,-0.686196744,98.94631405,0.565680749,354.2176195,left
-0.024683565,0.015295932,0.995989025,-0.289200634,0.071048282,-0.487970978,97.55272324,0.678538366,353.2274248,left
0.095281243,0.073566154,0.993064702,-0.018167157,-0.003931696,-0.054482166,96.14110755,359.5658421,348.3810559,left
0.098190598,0.086919747,0.999157071,0.040475905,0.122822843,-0.492167085,94.47536101,359.8993853,350.061437,left
0.059884142,0.070895426,0.994039416,-0.131482661,0.113049001,-0.59815228,90.9664128,0.193435173,350.3454192,left
0.015274093,0.028649524,0.98404789,-0.088722095,0.078840546,-0.624114037,87.8857516,359.0853331,350.0013604,left
0.00775827,0.028649524,0.985753715,-0.020305187,0.092279583,-0.580742598,84.44617761,359.9800648,350.1104359,left
-0.000246836,-0.00410084,0.980392396,0.140352368,0.026000701,-0.514158309,83.11968658,359.4807628,351.505006,left
-0.00172785,0.033505373,0.992089868,0.203576922,0.094417609,-0.583796918,80.97719967,359.8912484,354.010917,left
-0.014069632,0.093232349,1.059350252,0.063994221,0.006758447,-0.468954235,79.18887856,359.8660882,357.3032106,left
-0.035544332,0.040303569,0.985997438,-0.112240404,0.018975751,-0.310434699,79.32849445,359.8034607,355.8579522,left
-0.042208895,-0.004583292,0.978199124,0.002105279,-0.072825,0.069808394,83.75932696,359.5453678,355.3450489,left
0.067399964,0.064340033,0.990627706,-0.149389297,0.235051081,-0.519676566,11.89159328,358.547289,312.8130917,left
0.045094937,0.045645002,0.991846144,0.10992299,0.086610839,-0.547165513,15.2634613,359.1112052,314.7249504,left
-0.006664563,0.047101758,0.985510051,-0.031492312,0.005060324,-0.563964307,17.58930464,357.6956688,316.1731418,left
-0.005183549,0.013353592,0.990140319,-0.098992921,-0.056026202,-0.403612167,22.73226804,356.4137648,316.3344299,left
-0.019500017,0.009711703,0.974056304,0.07785257,0.047515459,-0.379788429,27.41556654,358.0765297,317.5216909,left
-0.002468356,0.001456755,0.976980627,0.055861421,0.075920694,-0.403612167,30.56620644,358.0431162,319.541996,left
-0.028386101,0.033262581,0.990384042,-0.024772793,0.042323105,-0.52670157,34.42806029,358.3534442,320.2459699,left
-0.027645594,0.000485585,0.971375644,0.090680741,-0.027315535,-0.898413062,35.35773099,356.7853064,322.3333543,left
-0.033075977,-0.011578843,0.965526879,0.173147544,-0.001353759,-0.815335393,35.53295608,354.6148838,324.9431525,left
-0.016291153,-0.059341572,0.966014266,-0.343339026,-0.140020177,-0.306179166,40.48743187,353.6018416,321.740832,left
0.050671194,0.066525161,0.994039416,0.044369735,-0.006608035,0.071857408,51.77566161,2.868593647,326.0177837,left
0.058429465,0.04613059,0.983316779,-0.037899479,-0.022807216,0.026277969,58.87270627,4.578587428,327.6374026,left
0.054550331,0.081578307,1.000619292,-0.2413176,0.06882257,-0.205545396,63.22242345,5.89407119,327.3237091,left
0.055277668,0.026707184,0.999157071,0.090076789,0.241086572,-0.579394937,62.24957228,5.553465451,329.5779379,left
-0.021968372,0.03107745,0.981123507,-0.141441137,0.000100231,-0.345128119,64.84280387,5.526033704,328.6619617,left
0.010182728,-0.059100345,0.993064702,-0.126474932,0.018426187,-0.605662167,65.17695038,3.286078928,329.9824148,left
-0.023202552,-0.041008402,0.981123507,0.165518656,0.085010499,-0.312141359,66.57150426,3.424681609,333.4669485,left
-0.021968372,-0.008442907,0.983804166,0.017994693,0.007430613,-0.424235165,67.9741519,2.443503164,335.1127065,left
-0.040974721,0.01796665,0.996963799,0.131004766,0.140599236,-0.741885066,64.1313577,1.800810324,337.201696,left
-0.021968372,-0.067060798,0.968694925,-0.237652406,-0.097332776,-0.455389261,64.23741688,359.3888598,335.5659955,left
0.041215803,0.040303569,0.993308365,0.008234521,-0.012508113,0.008277467,71.95352257,357.0372895,348.4646233,left
0.049701411,0.023793673,0.998182297,-0.019577432,0.046439379,-0.200688422,75.91428779,357.7232066,348.674089,left
0.024487037,0.008254947,0.982342005,0.118478112,0.060183845,-0.544605553,77.30599348,358.1854832,349.9030748,left
0.022305025,0.014081969,0.988190711,-0.173820913,0.076066345,-0.441980183,78.69982335,358.7174873,349.4963968,left
-0.00172785,-0.014956006,0.994770527,0.071441486,0.023837365,-0.270327032,81.79101671,359.1998297,350.0004793,left
0.005818702,0.035690509,0.991115034,-0.029045843,0.069652259,-0.253528237,84.1722119,0.033620329,350.9301389,left
-0.016537989,-0.003618388,0.993795693,0.034789573,0.046439379,-0.428541154,84.59758925,0.128716302,351.2474063,left
-0.006911398,-0.000723678,0.976736963,0.052199237,0.085840188,-0.674414396,81.53982284,0.242559948,352.3925396,left
-0.037765853,0.012868007,1.051551938,0.339916766,0.122797534,-0.763295293,77.26557925,0.854456665,355.7745718,left
-0.05405701,-0.008442907,0.971375644,0.006689772,-0.061378337,-0.527195871,75.69262083,0.451113878,356.9339706,left
0.126314327,0.070652634,0.999157071,-0.099600777,0.13226594,-0.469774544,7.633961563,3.418093251,335.9199683,left
0.052125871,0.022094125,0.984779,0.033873275,0.102944419,-0.773680031,10.75604189,5.105269718,336.3271312,left
0.073461115,0.046373382,0.992577255,-0.336311042,0.110580228,-1.00428164,7.565484647,2.607021094,333.5732331,left
0.03733667,-0.017368264,0.98404789,0.07510668,0.369587094,-1.076058388,4.057032049,1.835929876,334.9489066,left
-0.025670907,-0.049692538,0.979905009,0.006995205,-0.055575117,-1.218084574,351.5878989,355.9944257,334.2379779,left
0.04218559,-0.043661885,0.999157071,-0.19306317,-0.102306299,-0.238562047,337.0307739,350.4706012,332.7781598,left
0.018910781,-0.066819578,0.975762188,-0.005581019,0.049496822,-0.087470129,325.0562195,348.1425303,333.3865709,left
0.023517253,-0.056205634,0.991115034,0.087348007,-0.06166032,0.040004153,315.4533184,345.8535,335.6351648,left
0.019395674,-0.050174985,0.975762188,0.019441489,0.02200719,0.038051128,305.983968,344.7018977,336.9901701,left
0.024487037,-0.029912012,0.98745966,0.001966892,-0.013858451,0.023001421,296.9114687,343.3662354,338.7035299,left
0.081219383,0.07550849,0.999644458,0.375205576,0.402751654,-1.163298845,171.2918417,19.42328215,3.500788486,left
-0.011848111,0.03132024,0.954316854,0.05205784,0.120531909,-1.101296067,156.2703842,20.23629494,358.5674804,left
-0.016044317,0.004613059,0.93969506,-0.196258888,0.040203124,-0.851757646,145.2007922,18.94504255,352.7464749,left
-0.032582305,-0.075744927,0.982342005,0.167205945,-0.220330909,-0.753408313,139.2361383,15.42244249,352.1658089,left
0.063520834,-0.033771627,1.001593947,-0.130197853,-0.109421015,-0.044952497,138.5067424,12.42553734,350.1452212,left
0.040730912,-0.012784973,0.981123507,-0.019419491,-0.031923316,0.02949308,139.7943014,11.30351314,350.9618933,left
0.057217237,-0.00940781,0.988190711,0.077850796,0.043893788,0.029217007,140.70314,11.07760036,352.6558152,left
0.036366891,-0.000723678,0.983316779,0.018915758,-0.015634794,0.012728617,141.646676,10.15081114,353.3548411,left
0.037094224,0,0.987215936,0.040097062,0.020870999,0.016479822,142.4190201,9.712411179,354.3027492,left
0.038548902,0.002427926,0.98404789,0.01278848,-0.005201204,0.02229486,143.2787087,8.982812079,354.8961638,left
0.076370463,-0.015920909,0.986484826,0.041228291,-0.014869334,0.024352867,149.4886484,2.788826216,4.182327173,left
0.079764709,0.005098644,0.98745966,0.028624877,-0.00263012,0.028244279,150.4239608,2.399336172,3.847296149,left
0.078310028,-0.009649036,0.988678098,0.075928159,0.020387892,0.022870637,151.7867748,1.973349227,4.052675669,left
0.075885572,0.028163938,0.986972272,-0.048905838,-0.007568397,-0.039043613,152.4898745,1.868559397,3.549243342,left
0.059156805,0.026707184,0.969913483,-0.201316714,0.051380098,-0.342949092,149.0494263,2.354596512,1.568304388,left
0.062308598,-0.069473058,0.981610894,-0.135037839,0.139039263,-0.374408633,145.7376861,2.760624151,358.9655105,left
0.050671194,-0.119648047,0.990871429,0.128245085,0.057488754,-0.200312033,143.7431069,3.065330416,359.3097975,left
0.105463974,0.172139943,1.02303946,0.586088598,0.366281152,-1.51428318,131.4001355,6.544658661,3.815208774,left
-0.041715223,-0.098661393,0.93628329,0.208879292,-0.122716486,-1.63706708,111.3671906,6.975294404,4.338132326,left
-0.003208863,-0.111205138,1.008173943,-0.288059562,0.152783737,-0.238185689,109.2103398,7.729661051,359.0416858,left
0.021092795,-0.047039051,0.983804166,0.024715319,-0.003417291,0.025981767,118.2052892,4.908328044,6.365519021,left
0.02497193,-0.04535047,0.987947047,0.011081744,-0.000715695,0.018727431,120.9538256,4.260623339,6.242465906,left
0.025941715,-0.04052595,0.987703323,-0.038703773,0.059149101,-0.252496749,121.157939,4.698547748,5.227659024,left
0.026911497,-0.070196733,0.987947047,-0.010603974,0.074726164,-0.280901968,119.9793625,5.350252382,4.599940307,left
0.009697837,-0.053552151,0.992333591,0.103322402,0.079307653,-0.229589298,120.5364191,5.704452332,5.399445966,left
-0.010120261,-0.04414434,0.982098341,0.10393326,0.013334205,-0.248526111,120.0689746,6.031480082,6.460670386,left
-0.003702535,0.048315722,0.999888182,0.051093414,-0.080128178,-0.84350884,115.4093103,6.391577047,6.713260173,left
0.07952226,0.048558515,0.965526879,0.02696424,-0.360515326,-1.538368106,98.95402534,1.294859686,7.88517592,left
0.1520136,-0.056929313,1.005736828,-0.120254286,0.078085922,-0.470270216,94.34247285,2.213770178,5.622712897,left
0.073218666,-0.097455256,0.979661286,0.021974862,-0.001252063,-0.041444357,96.79004382,1.651367706,3.349816546,left
0.095038801,0.047830135,0.992820978,0.099860184,0.113590598,-0.15109466,83.1601213,22.64422007,16.71545536,left
0.102312177,0.219727278,0.984535277,-0.232145071,0.160321787,-1.603121281,71.8593206,26.95360498,9.835422886,left
0.148376897,-0.07429757,0.888275027,0.164306462,-0.155800968,-1.64282763,55.27381129,24.61991717,358.8985161,left
0.095281243,-0.159691542,1.030350208,0.17469117,-0.010109607,-0.609549046,52.92020324,22.52982465,357.9894587,left
0.086553194,-0.015197231,0.984779,0.004259769,0.035399854,-0.041138921,57.10785027,22.21359543,357.5176604,left
0.090917222,0.04807293,0.982342005,-0.002256263,-0.022782931,0.020179778,62.87193912,21.12975881,359.0990958,left
0.094311461,0.019908991,0.972594142,-0.013823757,-0.013363505,0.04713054,69.03781043,19.82329559,0.694655905,left
0.102312177,0.021608539,0.985753715,0.033302158,0.014234372,0.00366395,74.16942035,18.45227001,2.092717668,left
0.089947432,0.01044008,0.985510051,0.064020805,0.016086843,0.043765031,79.07874176,17.26764542,3.583800258,left
0.087038085,-0.026534848,1.003787279,0.125107318,0.170024872,0.566665709,88.17035192,16.77833408,7.677961641,left
0.121465407,0.025250427,0.988434374,-0.021523092,-0.007549681,0.00928347,92.21831817,13.78805165,3.518326491,left
0.116131596,0.019423407,0.986241162,0.018077966,-0.010102166,0.011895789,96.60556041,12.51882406,4.479816062,left
0.117343821,0.012868007,0.985753715,0.000162911,-0.000708088,0.008062787,100.977223,11.28526287,4.931946838,left
0.119525842,0.012139629,0.982829392,0.014322296,0.001890004,0.015900685,105.2990115,10.22687213,5.294103104,left
0.120010726,0.014810347,0.98063612,-0.012659321,-0.002778612,0.000228263,109.3546754,9.094131356,5.423778942,left
0.121707849,0.025007635,0.977711737,-0.018410536,-0.007184872,0.020331742,113.360957,8.077788109,5.794540393,left
0.138921499,0.099787742,1.002325177,0.078717038,0.207839698,-0.894438982,110.326987,9.261592227,5.371986044,left
0.139406398,0.08959046,0.92190516,-0.260007739,0.17393668,-2.4283216,87.08057475,11.93038278,356.6965912,left
0.098190598,-0.28609392,1.053501487,-0.304906338,-0.059108421,-0.819302559,78.46269968,12.66449492,351.2378662,left
0.07855247,-0.104209587,0.98745966,-0.108487286,0.064614162,-0.04106696,81.47224495,12.62137594,349.6435284,left
0.061338816,-0.054999504,0.981610894,0.068186902,0.025034133,0.082306638,102.3193961,17.35263346,9.991285241,left
0.035639551,-0.010131488,0.981854618,0.068629473,0.004521284,0.021348109,106.4696445,16.03500972,11.47527873,left
0.042912927,-0.039802272,0.992333591,-0.030539956,-0.012344807,-0.018563973,109.7981528,14.47145306,10.86700855,left
0.04218559,0.003884681,0.993552089,0.088273332,0.142204106,-0.380501628,109.8387582,14.99521928,10.55122586,left
0.062066156,0.057784636,0.991358757,0.069947377,0.152894229,-1.223801017,101.064424,17.41378927,11.02478592,left
0.048731629,-0.016644586,0.936527014,0.308184832,-0.054799944,-1.663624048,83.95389173,18.69715791,6.933209767,left
0.076855361,-0.105656944,0.999157071,-0.115755662,-0.045636959,-0.308114082,82.37912332,16.86136869,5.069915378,left
0.044125158,-0.057411764,0.99428314,-0.026487257,0.040373981,-0.086992279,85.10960072,16.08201166,3.862263228,left
0.043397821,-0.038596142,0.989652932,0.008358411,0.013312307,0.071032897,89.43395741,14.87431128,3.885356098,left
0.068127304,0.000242793,0.999157071,0.198948368,0.049964219,0.29186067,96.84347639,13.48912586,8.104320832,left
0.095766135,0.061912108,0.983316779,-0.102819063,0.148618966,-0.38222912,40.91397719,22.30674555,313.9148115,left
0.034912214,0.13159357,0.961384058,-0.438489527,0.188630641,-1.474456191,34.93511304,14.72749295,309.2997448,left
0.050428752,-0.119165592,0.964795828,-0.133667767,0.117159396,-1.10885334,31.05111572,5.808462026,307.0569634,left
0.05406544,-0.14208205,0.981123507,0.154660642,-0.161700577,-0.734087467,33.31297043,359.6314379,309.3322122,left
0.083158948,-0.115305983,0.984535277,-0.031118071,-0.031338491,-0.084651373,38.76276812,0.051465482,311.7934845,left
0.08412873,-0.012543746,0.991846144,0.054172006,-0.047670931,0.056196779,45.39337917,3.465511199,315.5704937,left
0.07540068,-0.023881365,0.935795903,0.0238203,0.035781089,0.044656068,51.13477471,5.785045576,318.7283224,left
0.065702841,-0.014473554,0.993064702,0.003118534,0.031464521,0.138182774,58.06333568,8.685380393,322.2916116,left
0.038791347,-0.012061295,0.98063612,0.076401956,0.064424925,0.089015469,63.95067871,11.38218667,325.3945495,left
0.023274807,-0.091183387,0.978930235,0.029670767,0.006392727,0.58687067,73.99129584,15.14690754,328.5326662,left
0.06109637,0.070409842,1.005005836,-0.119804844,-0.083698161,0.008041337,98.09221939,0.573865024,305.3506148,left
0.053095657,0.032291412,0.997207463,0.075856917,-0.007214528,-0.000635338,101.7066189,2.285237435,309.1684379,left
0.067642413,0.100758918,0.97722435,0.051121525,0.046441361,0.043509647,105.3582634,4.404237885,313.4155178,left
0.040973358,0.111927383,0.980392396,0.030414473,0.010276579,0.03082973,109.0105295,6.248924277,317.0272877,left
0.043882709,0.055842295,0.961140394,-0.03947632,-0.031037878,-0.044094197,111.7689287,7.011317249,319.5949129,left
0.092614345,0.233809248,1.025476336,-0.175393835,0.21819514,-1.239557505,105.8536365,2.805661778,321.0472843,left
-0.003208863,0.038846813,0.880720377,-0.352850199,-0.05486162,-1.987867355,90.7144881,347.8948574,319.7145744,left
0.109100662,-0.165480971,0.987947047,-0.057191413,-0.770490289,-0.672980011,92.32105788,337.9109428,317.3475826,left
0.131405681,-0.199735045,0.963821054,0.511524141,-0.116559006,-0.123201236,95.34963206,335.9582139,323.5513614,left
0.161711425,-0.103003457,0.999157071,-0.038254593,-0.04325518,0.482777089,102.0469399,340.7569512,324.0594797,left
0.108373329,0.051229235,0.990871429,-0.072463043,0.051734366,-0.353497446,64.30283643,320.1825687,336.0009556,left
0.12316253,0.081578307,0.998669684,-0.06849242,0.280197978,-0.80401057,60.09668983,321.9817464,343.4533596,left
0.07467334,0.057784636,0.979905009,-0.240756422,0.072503783,-1.327522039,45.96913679,322.3150767,349.5205458,left
0.083401397,-0.194428071,0.9491992,-0.322306931,-0.166344523,-1.02789259,36.84607702,319.2620539,352.9100639,left
0.129466116,-0.111446366,1.008417487,-0.175088406,0.06272994,-0.724903524,33.38195193,320.5947706,354.9565597,left
0.15007402,-0.043903116,1.021089792,-0.07612697,0.059614625,-0.168626696,38.65752516,322.7767326,353.4129997,left
0.128253892,-0.242432028,0.920442998,0.137065008,0.119479418,0.42055285,48.59657055,325.2970075,349.3952425,left
0.107403539,-0.160415217,1.019140244,-0.274963617,-0.176179364,1.385109067,69.71373278,329.7942465,337.1205909,left
0.066672623,-0.177059814,0.955047965,0.787941933,0.228518859,1.401296973,85.67778367,337.2930378,338.293167,left
0.085825853,-0.001206129,0.908745527,0.256183714,0.048313618,1.822793961,105.9944819,346.1136696,338.0917431,left
0.034912214,0.084734611,0.995745361,-0.076737836,0.048924483,-0.275528103,70.97327431,344.76451,345.5754345,left
0.075158238,0.069681473,1.007442713,-0.419127822,0.05075708,-1.2880373,63.19890028,343.2850159,344.4467389,left
0.040003575,-0.120130494,0.969913483,-0.041002218,0.161323681,-1.08431375,54.32232154,341.1677495,348.5169929,left
0.018910781,-0.029912012,0.972594142,-0.229454145,-0.050646551,-0.796290696,50.96439564,340.977708,349.1172222,left
0.06594529,-0.141599596,0.957728624,-0.228232414,-0.18412061,-0.582182467,49.68315461,338.5866398,348.6271562,left
0.111767568,-0.102279782,0.985510051,-0.330857784,0.019602951,-0.288661689,52.48370292,338.2240114,346.0676162,left
0.07952226,-0.181884319,0.966014266,-0.048871666,0.078065626,-0.07062,56.01240063,340.0581135,345.7023659,left
0.085340962,-0.131468117,0.976493299,-0.02058675,-0.029663842,0.007732267,61.73349685,340.6523178,345.209794,left
0.088007867,-0.151489854,0.972350419,0.006609786,-0.022453506,0.009646853,67.02674319,341.3595207,344.8614355,left
0.07055176,-0.222169057,0.961140394,0.444600165,-0.107669204,0.545681119,76.00620165,342.1370899,346.974521,left
0.113222241,-0.017127039,0.998913348,-0.074797712,0.129500583,-0.190437615,53.29857523,346.791799,340.5207803,left
0.087522976,-0.004342066,0.977711737,-0.077546611,0.113007218,-0.439976066,55.44957597,347.7985526,340.6990482,left
0.072976224,0.001942341,0.993308365,-0.079379201,0.330169797,-0.958295226,49.89682683,348.3913183,341.9276763,left
0.016971214,-0.066095896,0.956510127,-0.141992897,-0.031767845,-0.837343931,45.85346754,346.2738401,342.5451169,left
0.073461115,-0.117477015,0.970157146,-0.374732554,0.040314253,-0.870636106,43.09364764,343.3907541,340.9256756,left
0.064733058,-0.223857626,0.963089943,-0.249505162,0.135914668,-0.499840885,41.06420378,344.3625739,340.0357583,left
0.019880565,-0.182125553,0.967963934,0.010723419,-0.093465239,-0.178831175,44.99966999,343.1747784,339.9578805,left
0.077825136,-0.205042005,0.962115169,0.05318094,-0.052895717,-0.055938911,50.43624444,343.3503416,340.581639,left
0.065460399,-0.162345037,0.962358892,-0.056330107,-0.043712292,-0.001033057,56.40799835,343.9701334,340.0390846,left
0.077340245,-0.186950073,0.96357733,0.048568286,-0.040729202,-0.014860946,61.62874907,344.5315596,340.2712496,left
0.128253892,-0.046797823,0.976249576,0.012298957,-0.021946725,-0.012016214,71.35566928,342.361325,343.665676,left
0.125586987,-0.004342066,0.984779,-0.029545311,0.170475826,-0.983291984,66.33194903,342.9064681,346.6999577,left
0.125586987,-0.095043004,0.965526879,-0.241515547,0.132602185,-0.974434435,60.26457588,342.0969711,347.6928478,left
0.081704274,-0.11844191,0.962602496,-0.129727215,0.228202596,-1.013835192,53.31535017,343.0226479,349.9385696,left
0.11758627,-0.099626295,0.981610894,-0.157521576,0.089230746,-0.569736183,50.89293479,344.3684017,351.2759454,left
0.07540068,-0.159450322,0.998182297,-0.081774294,0.048913643,-0.454588115,51.02148236,345.1175506,351.0574032,left
0.04218559,-0.20045872,0.93969506,-0.038402859,-0.078757197,-0.349213839,52.08435542,344.2483048,350.5634883,left
0.081219383,-0.199011371,0.974056304,0.018768679,-0.03476762,0.001927704,57.27970125,343.9833857,350.3746763,left
0.071763992,-0.181401879,0.959678233,0.03269374,0.039235249,0.00560079,62.65790831,345.2452478,350.4447651,left
0.083401397,-0.166445866,0.976493299,0.005372666,0.000805637,0.02139934,67.9292639,345.475934,350.0864483,left
0.170439467,-0.014473554,0.999888182,0.021866027,0.216441065,-0.685371697,30.12679988,15.1627587,8.437738224,left
0.117828719,0.053657159,0.967232823,-0.005317476,0.389621377,-0.961482823,27.86515862,19.07064631,7.457263715,left
0.123889863,-0.043420661,0.970888257,-0.060906213,0.134890556,-0.919943988,23.89203587,20.21224413,3.446189875,left
0.002424459,0.023793673,0.977711737,-0.094198368,0.109539658,-0.733935535,22.50345158,21.43888634,1.08431697,left
0.032002863,-0.064889766,0.94993031,-0.278374225,-0.058753725,-1.016460776,18.40534149,20.66211796,355.4301859,left
0.090189874,-0.096731581,1.00793016,0.063710302,-0.02698873,-0.488673121,18.79908653,18.31086973,355.7897566,left
0.092856787,-0.124955006,0.979417682,-0.055713858,-0.069138438,-0.294112563,22.58905092,16.59699427,355.2847674,left
0.082916506,-0.131226882,0.971375644,-0.172694549,0.024629382,-0.183240518,28.15232197,16.28454214,353.8735269,left
0.101584837,-0.139669806,0.971863031,-0.015200745,0.067149036,0.008056659,35.31110129,15.55912653,354.1654535,left
0.081946716,-0.122783981,0.962358892,-0.000903249,-0.042310685,0.01597118,42.29939568,14.28824006,355.3319678,left
0.069339536,-0.049210083,0.959921837,-0.19760187,-0.044448718,-1.242411137,284.0150402,321.0363731,334.4755421,left
0.072006434,-0.02002175,1.010367155,-0.340544343,0.305271626,-0.878641009,263.6702563,320.4723839,342.3815253,left
0.056247454,-0.054758281,0.984291553,-0.0079282,-0.149822965,-1.076561213,242.0552825,318.5842396,355.1716752,left
0.057459682,-0.070679188,0.990627706,0.109663352,0.040156119,-0.690189064,227.716803,321.6025377,2.405505968,left
0.031275522,-0.017127039,0.970888257,0.050714862,-0.069494188,-0.501431704,213.8961884,324.8056232,10.71678196,left
0.09455391,-0.04173208,0.967720211,-0.130101249,-0.219461605,-0.288545161,204.5546207,325.3124062,11.48158983,left
0.17213659,-0.069473058,0.959678233,0.06109957,-0.29734692,-0.250060648,196.9746407,322.6878035,14.86730179,left
0.218201324,0.001942341,0.993552089,0.018891089,0.009590229,0.033716723,193.5436454,323.9819946,14.33102437,left
0.211412832,0.012382422,0.970888257,-0.039269745,0.068728201,0.044137225,191.3922314,325.8742302,13.42411271,left
0.184743792,0.004855852,0.967476487,-0.003019918,0.038940802,0.026167251,189.0573586,328.0354421,13.3211015,left
0.099887721,0.063126065,0.983073056,-0.178643674,0.089031748,-0.334548652,126.0060482,357.6358177,356.6888344,left
0.091402106,0.033990961,1.00451839,-0.063190147,0.017255083,-0.494289935,122.4319059,357.8689517,356.6674088,left
0.075158238,0.003399096,0.982098341,-0.038755536,0.150423706,-0.710841656,116.2820308,358.8510873,356.7845514,left
0.043882709,0.004855852,0.975274801,-0.162150308,0.012062729,-0.507728934,112.8946668,358.9635064,355.6157618,left
0.040003575,-0.027017301,0.986241162,-0.06135755,0.056045026,-0.541021109,108.914217,359.1944827,355.1807812,left
0.051883429,-0.047280274,0.967963934,-0.20949237,-0.061851963,-0.435646862,106.3795475,357.9660164,353.1172564,left
0.096008584,-0.046556596,0.941644609,0.091664195,-0.042609707,-0.413350284,103.8698013,355.3554867,355.9925372,left
0.11273735,-0.045591693,0.973325253,0.126788944,-0.082621381,-0.600580454,98.63436565,352.5405216,358.8148927,left
0.168742359,-0.03763124,0.986241162,-0.043642458,-0.084453978,-0.260939389,99.06528229,348.9632288,359.764191,left
0.179167539,-0.083222933,0.983316779,0.0748633,0.000973545,0.034748193,102.0679154,348.6840388,359.6276791,left
0.126314327,0.025978805,0.995257914,0.133200929,-0.035372935,-0.643923104,11.51231885,9.442204627,11.87740441,left
0.17092438,0.045887794,0.980879843,-0.045477152,0.074888237,-0.350707799,16.75153413,9.406219775,12.68942597,left
0.176015735,0.000728378,0.971131921,-0.051585805,0.141472548,-0.451500565,22.03491768,10.28959973,12.56003145,left
0.139406398,0.018209444,0.97381264,0.000337742,0.051064499,-0.498231769,26.23967263,10.74000546,12.72503345,left
0.077097803,-0.056688085,0.960896671,-0.2678321,-0.018879576,-0.235865101,30.20221883,10.05104598,9.760290805,left
0.132375464,0.01044008,0.999157071,0.14755626,0.241959885,-1.000668406,29.01867682,11.92746458,8.986635278,left
0.059156805,0.003884681,0.944325268,-0.000273123,0.021437531,-0.342461109,31.26261594,12.85614491,8.844509286,left
0.091402106,0.037632849,0.993064702,-0.017071918,-0.233293265,-0.50434041,33.08655991,10.7793021,7.936978636,left
0.121950299,-0.003859614,1.007686496,-0.289823234,-0.018879576,-0.770677626,31.32602059,9.740054662,4.58328916,left
0.172621489,0.012625214,0.941400945,-0.078463875,0.084051222,-0.543130338,32.52557598,8.797624307,4.691043505,left
0.168984801,0.058998596,0.97040087,-0.056195922,0.007852393,-0.138870507,21.46134059,12.51737436,354.9670633,left
0.186198458,0.0587558,0.979417682,-0.427296549,0.100398481,-0.753706396,19.48876488,13.68477407,348.7696365,left
0.161953881,0.008983325,0.981854618,-0.342997134,0.21982263,-0.756149888,19.38713337,14.77383578,343.8575292,left
0.116858929,-0.108310424,0.968207598,-0.120031334,0.259223431,-1.123890758,13.86064717,14.58114077,339.8973223,left
0.101099946,-0.098420165,0.952367306,0.020162232,0.19508259,-0.818152666,11.60891822,13.92104226,339.3470123,left
0.08412873,-0.04052595,0.960896671,0.303909153,0.230818197,-0.680707991,11.92011359,13.78054613,342.4420767,left
0.100857504,0.002913511,0.99160248,-0.08429572,-0.312546432,-0.772337794,11.57466396,10.87525686,340.598694,left
0.111282676,-0.041008402,1.012804031,-0.192724288,-0.124399923,-0.41467616,14.37104928,9.308490013,340.890536,left
0.143527985,-0.024605041,0.947980762,0.052646786,0.058328629,-0.014917014,21.45210788,10.12988771,343.093844,left
0.128496334,0.015538725,0.993308365,-0.018805752,-0.04686841,0.068653397,29.45902936,10.50033412,344.9228184,left
0.096008584,0.119211152,0.981123507,-0.671209812,-0.209969431,-0.492426306,10.17521882,321.8818139,256.4286165,left
0.142073318,-0.019298071,0.986728549,-0.310493916,0.112872854,-0.505865335,4.733476909,308.0280729,252.1295998,left
0.075158238,-0.066095896,0.956997514,-0.219169557,0.240849108,-1.028766036,354.5757784,290.056083,254.270427,left
0.097220808,-0.169099346,0.959434509,0.161094055,0.37585035,-1.119784951,310.2194845,273.3452739,291.8198496,left
0.062066156,-0.091424614,0.970157146,0.320224464,0.219163403,-1.101153493,184.2416517,284.4291751,55.52524763,left
0.058187019,-0.090459712,0.987947047,0.075572923,0.076526366,-0.478987306,181.3349964,292.9004265,55.61597645,left
-0.00172785,0.0293779,0.996720076,0.173616797,-0.011438228,-0.77434063,175.7316559,304.0144796,58.51319243,left
0.049458966,-0.018574392,0.943350494,0.044724237,-0.419801623,-0.612766743,164.4973334,312.3979084,62.79033202,left
0.115404263,0.000242793,1.020115018,0.180030882,0.089965403,-0.147898331,162.3819965,316.8139433,64.84216183,left
0.121950299,0.033262581,0.987215936,-0.042192787,-0.025150862,0.036143396,162.184044,318.4557091,60.3919794,left
0.070309311,0.102701262,0.984291553,-0.056154717,-0.04175768,0.011669289,152.5473984,318.6747191,56.82064765,left
0.068369746,0.081335515,0.97722435,-0.042937227,-0.056058254,-0.060392588,153.534429,320.2639163,52.69198613,left
0.079037368,0.093475141,0.988434374,-0.15533644,0.117427483,-0.606811583,153.3629912,325.3178567,48.88793959,left
0.111767568,0.060455348,0.946762264,-0.464434236,-0.069802716,-0.730817199,148.776929,330.8386815,42.75066628,left
0.096978366,-0.024846269,0.961871505,-0.294002831,-0.049949598,-0.680115402,144.159325,335.1614229,37.18621362,left
0.120010726,-0.113617398,0.967720211,-0.074702218,0.238684222,-1.117189527,138.2263768,344.0381928,36.6630382,left
0.050671194,-0.11820069,0.960409284,-0.117157355,0.321761906,-1.778451085,124.4603628,359.6082369,33.68996272,left
0.073946007,-0.061512604,0.948468089,-0.109521538,0.062755033,-0.815116584,117.6529591,5.773889743,30.47912836,left
0.067884855,-0.141117156,1.006224275,0.042769112,0.062601231,-0.123941943,116.7267308,7.130657302,28.89618762,left
0.050671194,-0.073815122,0.984291553,-0.01320491,-0.01278864,0.002610345,118.598025,5.992587277,26.6075876,left
0.146922231,0.134021491,1.000619292,-0.257856429,0.056239132,-0.185230717,99.20322479,9.164888701,3.438721277,left
0.148376897,0.178209752,0.985022664,-0.782895148,-0.043637335,-1.260964394,89.94377639,7.982300357,355.0739557,left
0.066187732,-0.026293622,1.023283005,-0.469826669,-0.11235968,-1.477821589,82.00249302,7.488796137,350.3633775,left
0.139648855,-0.111928813,0.945543826,-0.0327526,0.102970324,-1.028835654,71.57304688,4.689209599,348.7467186,left
0.115889147,-0.058617894,0.988434374,0.026195899,0.101137727,-0.96255672,61.54352197,3.459153787,349.2794973,left
0.07855247,-0.216379642,0.999400795,-0.219677359,-0.133739948,-0.132390872,64.94231972,2.068327916,345.8974864,left
0.116374038,-0.064648546,0.975762188,0.110544667,0.047382038,-0.003114212,69.37513981,2.46426886,348.1135268,left
0.089462541,-0.056929313,0.979173958,-0.005331993,0.012034808,0.039697401,74.47432682,2.368227222,349.5105993,left
0.100857504,-0.094801776,0.99842602,0.062779479,0.015089134,0.28923586,81.53486412,3.117821914,350.4165095,left
0.07540068,-0.140634701,0.976980627,0.090268411,-0.030114893,0.869557858,92.83298739,4.808441223,351.329932,left
0.132133037,0.079393171,0.984535277,-0.08993683,0.09358532,-0.27703622,39.07755447,359.935558,330.6306544,left
0.125586987,0.190349385,1.015241027,-0.497689396,0.121379688,-0.752594829,39.58462088,359.6696441,326.5891939,left
0.126556769,-0.019056847,0.950905144,-0.596954942,0.117714494,-1.297486663,32.07362236,353.9283447,322.0002186,left
0.07443089,-0.104209587,0.951879859,0.550860822,0.32632497,-1.450202942,21.35107231,348.4011316,329.5647317,left
0.061823711,-0.049692538,0.999157071,-0.144914702,-0.246361196,-0.549787521,20.05173981,343.6722552,333.4123207,left
0.068612188,-0.012543746,1.014997482,0.089046679,0.039523743,-0.160666406,25.04014969,344.8397189,336.0050742,left
0.068854645,0.009954495,0.979905009,-0.023078399,-0.005190594,0.030993022,32.64976931,346.5782027,336.8469701,left
0.077582695,0.012625214,0.986241162,-0.028934058,-0.017305415,0.024976913,39.90583443,347.959763,336.9190952,left
0.071763992,0.021608539,0.990627706,0.022792023,0.011683382,0.020697542,46.63544907,349.6672062,337.3953114,left
0.070066869,-0.007960455,0.996476471,-0.013707321,0.044615373,0.12213815,53.92564123,351.8777252,337.4102883,left
0.090432331,0.1765102,0.931409299,0.397099555,0.039117586,0.039976772,74.53945268,359.7237041,45.53076501,left
0.091886997,0.318786651,0.947980762,-0.926950872,-0.107795507,-1.015598416,71.69497942,3.682420078,34.76991467,left
0.111040227,-0.082981706,1.002081394,-0.478270352,0.35188058,-0.974059522,69.32062125,11.26096106,25.34796241,left
0.065702841,-0.032806721,0.951392472,-0.092508942,0.179311156,-1.492378712,58.77053347,18.90984317,19.50785014,left
0.031760417,-0.165480971,0.919468224,0.08067137,0.135939732,-1.18511343,50.58356137,24.0547361,15.45678639,left
0.093341678,-0.163068697,1.030106544,-0.29012385,0.190306738,-0.296915412,51.27498825,23.61070891,13.05021278,left
-0.010120261,-0.20431833,0.970157146,0.084336549,0.164650396,-0.073033296,56.02748169,24.13004576,13.2772107,left
0.000484892,-0.134121597,0.989896595,0.074060954,0.019498026,0.00585112,61.56462042,21.71460059,14.57447451,left
0.001697121,-0.150042504,0.968451262,0.020711899,-0.04152748,-0.00875837,66.46059564,19.14868293,14.50189863,left
-0.012588618,-0.140634701,0.964064717,0.045248769,-0.040637381,0.007166466,71.21441414,17.16089298,14.36539217,left
0.049943861,0.072594978,0.973568916,0.119774327,-0.032696135,0.19775641,101.2470906,345.0957759,48.21351988,left
0.051156089,0.113141336,0.994039416,-0.002091017,0.010564059,-0.02415961,105.0361039,344.3538398,45.98072421,left
0.042428035,0.081092723,0.982585669,-0.197262466,0.00017935,-0.563859046,105.3748403,346.7440705,41.72759615,left
0.038064007,0.034233753,0.991115034,0.003848713,0.009543566,-0.175677702,108.5768466,346.7033053,39.05815332,left
0.052125871,0.248619601,0.93628329,-0.955515146,-0.022832291,-1.415123224,100.4075237,356.4754721,33.18423503,left
0.032972645,-0.109999008,1.00451839,-0.46590668,0.250529915,-2.450539827,86.5791569,9.895586607,26.1321313,left
0.138194174,-0.210590214,0.883888483,-0.289061189,-0.303830326,-1.244997263,72.70019885,9.868966799,19.03448217,left
0.10716109,-0.252804756,0.996476471,-0.141007856,0.038135219,0.010457492,75.11705445,8.085709421,15.14830944,left
0.102069736,-0.167651996,0.96357733,0.101352468,0.067880765,-0.028606966,79.42485476,6.956145115,15.50326071,left
0.112252459,-0.152454779,0.984291553,0.128125355,0.011526503,-0.008724516,83.26023821,4.384411126,15.45005012,left
0.116616488,0.034962133,1.000375509,0.024339657,-0.005926799,-0.005420635,85.43163048,3.153049895,23.34683139,left
0.117828719,0.026707184,0.984779,0.031403158,0.028960194,0.148642734,90.85704781,1.4640217,23.30780368,left
0.120980509,0.11362692,0.993795693,-0.010135677,-0.005553691,-0.339133173,93.71692998,0.995679151,22.20965611,left
0.148861781,0.156115636,0.972106695,-0.765165091,0.349359006,-1.751453519,80.81367811,9.186995462,13.82864517,left
0.05406544,-0.163068697,0.978199124,0.040871572,0.10715095,-1.501609683,67.82220751,12.29522075,8.202667019,left
0.023274807,-0.147871479,0.931409299,0.236959323,-0.121618085,-1.265204787,57.66948648,12.79695705,7.246612143,left
0.098675489,-0.076468609,0.976980627,-0.314652026,-0.146663576,-0.330581039,57.86059518,10.21025513,1.938445679,left
0.096735924,-0.030153235,0.999888182,0.113309726,0.087295204,0.026193079,63.45798984,10.14583962,3.046789441,left
0.121707849,-0.053069696,0.965283275,0.038606249,-0.02054878,0.00186259,68.59500244,8.996281212,4.006948833,left
0.081461824,-0.025569946,0.983073056,-0.005624149,-0.025420604,0.007946921,73.41103712,7.785365512,4.214331732,left
0.072491325,0.079878755,0.995745361,-0.025135316,-0.000191027,-0.033920769,75.55551845,4.227600228,3.010912805,left
0.05891436,0.102701262,0.985997438,-0.036436323,0.103656068,-0.392804116,79.12293308,4.400439446,3.13978951,left
0.041215803,0.036418889,0.936039627,-0.432582408,0.034322858,-0.39982906,79.44654744,5.216124115,0.678544449,left
0.059641697,-0.025087493,0.998669684,-0.109740153,0.158633932,-0.574231088,79.32212872,5.342734905,358.3055888,left
0.029335955,-0.009649036,0.966501713,-0.043766707,0.123509184,-0.839652002,74.29043764,7.571297992,357.0671108,left
0.040973358,-0.024605041,0.939938724,-0.05720574,-0.172760457,-1.185401678,66.86910926,5.781277019,354.4441,left
0.099160381,-0.098178938,0.956510127,0.006324243,-0.213383004,-0.965184808,62.69369167,1.894270791,353.5046101,left
0.238566786,-0.123748891,0.989896595,-0.350115627,0.20414339,-0.655476153,59.16760652,0.337096543,347.0180823,left
0.086310744,-0.14570044,0.951392472,0.071075961,0.094187647,-0.197327226,59.1715407,1.020169114,349.0963005,left
0.070794202,-0.085876413,0.98404789,0.044145472,0.038475722,0.083271742,64.10042378,1.594326235,350.0616667,left
0.050186306,0.03010628,0.984291553,-0.029271591,-0.022407291,-0.032365855,64.99015154,357.4495472,345.4338327,left
0.05867191,0.016752686,0.987215936,0.008944344,-0.019074038,0.035605162,71.30035158,358.3077548,346.328596,left
0.036124442,0.059969768,0.992577255,0.024215978,0.006582301,-0.251806945,74.9475838,358.3140314,348.0690486,left
0.078067586,0.016752686,0.992820978,-0.464170784,-0.009605628,-1.092968345,69.65276651,355.6803369,342.1510303,left
0.078067586,-0.025087493,0.961384058,-0.046949822,0.14738673,-0.719729722,65.64640977,355.6740485,343.3051616,left
0.056247454,-0.059582796,0.979173958,0.076444954,-0.129640654,-1.077085853,63.02654045,353.0520532,345.4994742,left
0.230323613,-0.045591693,0.942863107,0.194647387,-0.178509861,-0.957356274,53.88888457,347.5444209,352.1141889,left
0.144497767,-0.047762729,0.987947047,0.131728262,-0.148882911,-0.454308748,53.75998866,344.3895412,352.8014801,left
0.146437332,-0.019298071,0.980392396,0.043417931,0.022577779,-0.051407218,58.30951619,345.180711,352.6714666,left
0.142073318,0.01505314,0.979905009,-0.025869936,-0.082879066,-0.067422234,63.95398452,345.4036535,352.4082003,left
0.071521543,0.063611656,0.999644458,-0.055105731,0.004017649,0.049880024,88.78765076,342.9125264,342.5288969,left
0.084856071,0.093232349,0.997451186,0.038320303,0.071822904,-0.339468598,91.19533342,344.2062479,343.616999,left
0.058187019,0.10634315,0.975274801,-0.368821383,0.105725922,-0.691937864,87.05457905,345.2035734,343.3822676,left
0.030548185,0.001213963,0.98063612,-0.193503052,-0.120294221,-1.154973626,77.48334617,342.2629601,344.9378927,left
0.081461824,-0.041008402,0.943837881,-0.024904255,-0.205815345,-1.306468248,65.22538325,338.4236834,349.0181162,left
0.203897014,-0.076468609,0.993064702,-0.459840328,-0.363418579,-0.648566425,60.14254772,332.6126558,350.6527973,left
0.186440915,-0.169340581,1.029619217,-0.08140929,-0.165192813,-0.177894741,63.40366252,329.1251202,349.967498,left
0.218686208,-0.079604544,0.929703474,-0.048422568,-0.035689384,0.001699648,68.70588373,329.7940553,349.1197767,left
0.234445199,-0.080569454,0.971863031,0.023665801,-0.027534014,0.013927463,73.5419377,330.6082753,348.5827642,left
0.217716426,-0.090942159,0.956997514,-0.001505543,-0.013750901,0.00771171,78.17967713,331.5579499,347.6313692,left
0.119525842,0.072352186,1.007199049,-0.022458646,0.07693854,-0.049695566,67.28200102,352.661918,3.942426597,left
0.130193457,0.003399096,0.957484901,-0.031621628,0.237596095,-0.926592648,64.59231351,353.7072814,4.897211484,left
0.059156805,0.01796665,0.950905144,-0.50015527,0.22904399,-1.09977293,58.51681243,356.8595121,359.1979078,left
0.102797069,-0.065854669,0.922392607,-0.096373342,0.046700709,-1.084501266,49.52417171,355.8901928,358.1556852,left
0.115161806,-0.160415217,0.93969506,0.230439544,-0.179013997,-0.915597081,43.96625212,353.4168541,0.971630375,left
0.200017884,-0.150042504,1.009636045,-0.296737134,-0.047372542,-0.392390966,43.69482382,352.5035045,357.8117877,left
0.24753727,-0.14304696,0.966501713,0.03557355,-0.038820427,-0.1810316,46.75999757,350.5268828,358.4207637,left
0.186440915,-0.10276223,0.956266463,0.008558571,-0.0348818,-0.015582198,51.86230256,350.027508,359.1105384,left
0.19419919,-0.08828868,0.969669759,0.00734096,-0.007116362,0.005490612,57.46425979,349.5801272,358.7168931,left
0.202684775,-0.079363316,0.977955461,-0.013744004,-0.018581044,0.088465907,62.65896016,349.31031,358.5575719,left
0.141588405,0.021122955,0.976736963,-0.019920249,-0.014244571,0.007810385,70.50022224,349.5728095,351.6088257,left
0.134072587,0.053414367,0.985022664,-0.040384233,0.126254439,-0.327554643,73.40954131,351.2150551,351.6849397,left
0.148861781,0.0587558,1.00866127,-0.165917039,0.136028275,-0.692546606,73.84151663,351.802167,351.4893145,left
0.086795643,-0.025811171,0.983560503,-0.015644189,0.099987224,-0.728587627,69.78613279,352.1060575,352.4186548,left
0.069824427,0.079150379,0.917031288,-0.433781445,-0.093351617,-1.461320519,61.14743247,349.8255146,350.4210789,left
0.119040944,-0.094078101,0.938232839,-0.211731941,-0.327007562,-1.433220744,52.4079288,345.8821714,351.8836401,left
0.229838729,-0.162345037,0.975762188,-0.465546459,-0.39725709,0.030717831,57.85717325,340.5383219,351.8904899,left
0.214079753,-0.092630744,0.934821069,0.353012979,0.088991657,0.003839761,61.19591998,341.3290359,357.3015694,left
0.205836594,-0.023881365,0.988190711,0.066016093,0.019157149,-0.039523751,66.43811749,341.3031546,358.2084363,left
0.195411399,-0.029188333,0.972106695,-0.064785562,-0.094830483,0.103449091,73.69280292,340.481225,356.075171,left
0.083158948,-0.042214531,0.982342005,-0.003795292,-0.012246836,0.012641688,79.48736465,339.0843966,351.4790282,left
0.091402106,-0.040284727,0.987215936,0.006837305,-0.011520406,0.047729824,84.93198165,339.953294,350.9188059,left
0.090432331,-0.035701431,0.986972272,-0.00100109,0.005656891,-0.023329528,89.17502494,340.7647837,350.9035609,left
0.077097803,-0.024363814,0.988434374,0.120561093,0.082320482,-0.23560521,90.70965233,343.6146613,354.3871162,left
0.092856787,0.023793673,1.008904934,-0.015356421,0.314449281,-0.831504285,85.63925457,346.4238686,356.0020931,left
-0.013329125,-0.010372713,0.992333591,-0.172654226,-0.076504484,-1.318058372,74.83722843,346.9679034,359.6642125,left
0.033457536,-0.020745426,0.96284622,0.031985637,0.066132553,-0.972308695,67.53948549,348.3227739,1.78147662,left
0.116616488,-0.078398421,0.999157071,0.205776781,-0.403011978,-0.986664057,60.87679988,344.1562646,5.650167696,left
0.100372612,-0.058376666,1.021333456,0.340472579,0.107060522,-0.244768187,63.10930869,344.5210292,4.421005999,left
0.092371896,-0.009649036,0.963333607,0.101318836,-0.010225607,-0.21727924,65.86350051,345.2069304,5.799431235,left
0.136981949,-0.042938206,0.98063612,-0.021965962,-0.011350945,0.019903827,76.34421405,342.1906762,2.662310195,left
0.120738067,-0.037872463,0.984779,0.264529854,0.035991114,0.211104661,84.92470067,342.5425522,2.985103654,left
0.128253892,0.015538725,0.98136723,-0.017324876,-0.00932222,-0.088753775,89.44559605,342.9521091,3.108676931,left
0.158802062,0.071381018,0.997451186,-0.254646033,0.2802279,-0.750015378,85.68653314,346.9837486,2.805396682,left
0.05406544,0.004855852,1.012316704,-0.086963512,0.324515641,-1.432657361,74.73116243,352.2324758,4.943108648,left
0.04218559,-0.052587245,0.92190516,0.210833296,-0.056664273,-1.328199387,62.83694806,354.4144506,8.899128602,left
0.151286244,-0.063201189,0.992820978,-0.156602144,-0.575288832,-0.959542155,54.82678224,349.7483488,8.824509639,left
0.184743792,-0.078880869,1.037417531,-0.323979229,-0.038338318,-0.189546555,57.24262015,349.6441124,4.636756734,left
0.200502768,-0.041973308,0.971619308,-0.096914716,-0.019204013,0.021512266,62.87382425,348.4735802,3.218696978,left
0.193471849,-0.034977753,0.975518465,0.021156177,-0.023921199,0.020771679,68.32572223,347.9657855,2.572119681,left
0.072733782,0.053414367,0.987947047,-0.017280698,-0.003147669,0.000108173,70.91815468,348.523333,0.551563069,left
0.075158238,0.046373382,0.989409208,-0.002281375,0.003514539,0.003456254,77.28699189,348.9622265,359.9865715,left
0.070066869,0.051229235,0.989409208,-0.022251975,-0.007350367,-0.024431741,82.67918036,349.4344436,359.8340302,left
0.1040093,0.08424902,0.967232823,-0.291948974,-0.082792222,-0.428824544,82.90430339,348.8164284,359.3927407,left
0.079037368,0.017481066,0.978199124,-0.20215179,0.098023891,-1.098027468,74.7177411,351.1383828,358.9404792,left
0.077825136,-0.04824518,0.968451262,-0.07142663,0.167357087,-0.879643083,68.71719452,353.7091204,359.407608,left
0.05867191,-0.04052595,0.971619308,-0.083643928,0.216837168,-1.203096271,59.72780497,355.7401045,358.8670006,left
0.101584837,-0.021951558,0.928972363,0.016232532,-0.270938724,-0.969745696,51.30878061,353.3278294,359.7016889,left
0.206079021,-0.052104793,0.976980627,-0.360976756,-0.266051799,-0.30940038,51.61193856,349.706478,359.1015576,left
0.143770441,-0.026776075,0.990871429,-0.060736485,-0.121887602,-0.367432594,52.2082209,349.788915,7.37808987,left
0.141345963,0.109985039,0.964308441,0.012014713,-0.020669308,-0.118509457,45.3734999,359.7820759,355.7756087,left
0.163651004,0.15975751,1.018652797,-0.052737001,0.176640153,-0.369269639,49.73582903,0.892870289,357.1187556,left
0.125586987,0.166555703,0.986728549,-0.254017085,0.324164122,-0.871400893,44.22791325,3.864779726,355.2853706,left
0.016243877,0.063854448,0.966745377,-0.386574835,0.072487637,-1.081233144,39.03575371,4.111205694,352.174911,left
0.034427322,-0.037390016,0.992333591,-0.111990929,-0.06159728,-0.970666468,34.83253726,1.698621623,350.6056707,left
0.025941715,0.068224713,0.937501729,0.228871867,-0.485232323,-1.185691118,30.40585409,357.9065929,351.0856529,left
0.142558202,-0.007719229,1.036930084,-0.292196184,-0.019753013,-0.396453142,29.13461245,356.1944295,350.7700648,left
0.049943861,-0.096490361,0.979905009,0.045917738,-0.18010515,-0.109346479,33.19148527,357.1778348,350.2889181,left
0.088250317,-0.053069696,0.992820978,-0.011892367,-0.105669141,-0.076242246,39.09155977,357.1699557,350.9633225,left
0.108615771,-0.076468609,0.987947047,-0.013023816,0.02332956,-0.09653201,44.28131509,356.6496695,349.5565255,left
0.090189874,0.055599499,1.051308274,-0.159675017,0.106030971,-0.17568773,176.2004801,355.1332721,2.988355251,left
0.073218666,0.067739129,0.990871429,0.030914936,0.17597504,-0.825037479,167.4101769,357.4624048,3.471524754,left
0.046064727,0.093960725,0.961871505,0.034274694,-0.064400434,-0.640250742,161.8404581,357.810049,4.500314314,left
0.079037368,-0.037390016,1.017190695,-0.283375233,-0.026832223,-0.704391599,154.9284569,356.9660485,359.8644173,left
0.071521543,0.043459874,0.981123507,0.035190996,0.062659532,-0.760285795,149.3566618,357.6279355,0.767093476,left
0.043640263,0.071381018,0.980148733,0.130791411,-0.044547319,-0.664685369,142.4668178,357.9702407,3.13704292,left
0.121950299,0.041274738,0.96016556,-0.085760325,0.042806413,-0.751428246,137.4030112,357.2251328,2.489240031,left
0.095523693,0.027921148,1.007686496,0.172941104,0.221484497,-0.747457623,128.9845571,359.5944362,3.752626312,left
0.022062579,0.035933301,1.03254354,0.089558005,-0.003619347,-0.491505057,123.2651616,0.257468677,4.42397457,left
-0.011601276,0.047101758,0.942863107,0.002751585,0.089157507,-0.048844069,122.9845365,1.084990064,4.515407324,left
0.132133037,0.074051738,0.995257914,-0.023515619,0.078772798,-0.506687582,26.18990787,12.80688217,350.4885697,left
0.090917222,0.05681346,0.975518465,-0.057724074,0.070220679,-0.654211521,27.87533389,12.86824374,350.990411,left
0.082916506,0.038846813,0.982585669,0.003973316,0.104429133,-0.650240898,27.49693799,12.79268733,351.0372909,left
0.070309311,0.066039577,0.98063612,-0.054669745,-0.01132983,-0.903750002,25.58943008,11.95211815,350.1545965,left
0.07443089,0.067739129,0.962115169,-0.082769543,0.038455687,-0.765083611,23.51890776,11.39205715,348.8263279,left
0.007273377,0.034719341,0.974543691,-0.274886668,-0.282859445,-0.64810288,22.97964725,8.93195193,345.4245915,left
0.083158948,0.007283777,0.93969506,-0.157905966,0.102596536,-0.569301248,23.18206161,9.85213209,343.8349606,left
0.164135888,-0.023881365,1.042047739,0.192119807,-0.141138688,-0.376878709,25.98920106,5.459178531,346.0182561,left
0.117343821,-0.024363814,0.963333607,0.005500481,-0.210471898,-0.172238842,31.8409144,4.15111577,348.0161462,left
0.133345246,-0.014473554,0.977711737,0.045619365,0.011854606,0.071528494,38.6850235,4.876162122,349.8965818,left
0.174318612,0.0883765,0.979417682,0.072497427,0.038732678,0.32809189,80.94870412,1.39792756,29.42330406,left
0.128496334,0.119939536,0.966501713,-0.01721523,-0.107547373,-0.041883089,85.58174438,359.6274755,28.94675151,left
0.144497767,0.172868311,0.975031078,-0.214524701,0.159400746,-0.157947481,90.53035303,359.580118,27.00019712,left
0.202442348,0.228467807,1.014266253,-0.574935198,0.291958511,-0.733687997,89.17865177,2.698985963,23.75767751,left
0.121707849,-0.028947107,0.943350494,0.003859621,0.246449038,-0.792941928,85.20843356,8.255282527,21.82834714,left
0.048489183,-0.030153235,0.875602782,0.295853227,0.044252645,-1.189393401,78.25631868,13.16948325,21.88417199,left
0.10328196,-0.033530399,0.974056304,-0.293020904,-0.282865703,-1.072107315,69.47382239,14.07253074,15.92953281,left
0.146922231,-0.099626295,1.028400779,-0.315317452,0.050361298,-0.280120552,68.01279711,13.89913187,14.99648629,left
0.124617197,-0.03401285,0.992577255,0.035918202,0.022459202,0.012493843,73.72527364,12.25974218,15.21427199,left
0.118556052,-0.070679188,0.969913483,-0.001437664,0.036297079,0.123741895,79.69533708,10.37841012,15.24742402,left
0.117343821,0.102701262,1.042535067,0.084694341,0.096467309,-0.650224388,345.2717079,9.651317698,314.5039426,left
0.109585553,0.090076044,0.999400795,-0.302899659,0.251321644,-0.979480803,325.9647712,357.5032623,310.6263178,left
0.016971214,-0.058135439,0.92190516,-0.12697047,0.094329283,-1.139222026,307.21025,344.9636339,311.1095845,left
0.016486323,-0.097455256,0.935308516,-0.454088807,-0.380313009,-0.879298866,292.5536168,332.9425317,312.3660797,left
0.150558904,-0.194910511,0.994770527,-0.169120178,-0.232178181,-0.22384043,281.3735192,325.0340896,315.0842594,left
0.1520136,-0.197805226,0.956266463,0.037260514,0.058890726,0.059790138,272.8024583,324.3150107,317.8206278,left
0.139163956,-0.14714779,0.967963934,-0.014106169,-0.012090527,-0.001437395,264.6362841,323.6454985,321.2166047,left
0.158074737,-0.166204646,0.96357733,0.033652864,0.018718349,-0.00185243,256.3360128,323.9588881,324.9740113,left
0.144012868,-0.154143348,0.964308441,0.06635347,0.073123664,0.142390922,249.286841,324.8805811,328.6433392,left
0.118313611,-0.17392388,0.962602496,-0.020083956,0.1155788,0.466760367,246.2219916,328.1016983,330.2816591,left
0.078067586,0.113141336,0.978686571,-0.028007139,0.00434042,-0.007013573,237.0389184,328.8610071,331.3579057,left
0.082189165,0.108285487,0.985022664,-0.032694541,0.010311702,-0.012042151,232.17372,328.958631,333.9561045,left
0.076855361,0.099544957,0.98136723,-0.018139932,-0.019457214,-0.008256988,227.7086341,329.2882491,336.5986808,left
0.085583411,0.121153489,0.963089943,-0.08488594,-0.028939303,-0.011490831,223.792149,329.6223512,338.5945321,left
0.142073318,0.290865511,0.999157071,-0.693307757,-0.028023008,-0.780570149,213.051458,326.8053933,339.7081603,left
0.088007867,-0.088771127,0.806149185,-0.646576524,0.060247023,-1.123265624,193.7606815,324.4988282,343.0628965,left
0.227656707,-0.268001944,0.97381264,-0.273643285,-0.242742121,-0.921680033,174.8709974,318.9926746,347.7744574,left
0.256507784,-0.245567963,0.941157222,-0.075916871,-0.03048816,0.003011283,171.8576409,319.2987559,347.464354,left
0.226444483,-0.211072654,0.936039627,-0.004927456,-0.013000205,-0.027437849,170.2101992,320.8692964,347.8379645,left
0.234930098,-0.189844787,0.943837881,0.028504878,0.019880442,0.002230215,168.8708401,322.4089781,348.5946598,left
0.141588405,0.073808946,0.983073056,0.009201199,-0.034566049,0.005885648,166.2755458,313.5311836,348.8588174,left
0.157347396,0.088862084,0.96357733,-0.036877606,0.017748386,0.066609189,164.7480833,315.7884553,350.8253168,left
0.150558904,0.067496337,0.97722435,0.006679699,0.023155686,-0.015455304,164.6486358,318.2238719,352.1804579,left
0.148619354,0.071138225,0.979905009,-0.02455182,0.011808323,-0.02117743,164.2500532,320.2417933,353.035966,left
0.149346679,0.012868007,0.989896595,0.160203516,-0.016089536,0.01580731,164.9901999,322.0128238,354.2922431,left
0.1520136,0.182822809,0.962115169,-0.39385128,-0.097029179,-0.215710625,163.9836212,323.1204892,354.0973343,left
0.219171107,0.00849774,0.972837806,-0.739906371,0.346458972,-1.351614475,145.7758259,327.7382537,355.5196384,left
0.208261043,-0.160173997,0.928972363,0.039252199,-0.119631201,-1.522351384,124.0300062,327.0846149,4.269934168,left
0.241476133,-0.138946116,0.940182447,-0.030386439,0.04194266,-0.540385485,116.0055038,327.913916,14.01734879,left
0.220140889,-0.053069696,0.963333607,0.038499061,0.038477905,-0.030518992,117.5724175,328.6350815,13.48473832,left
0.106676206,0.016752686,0.998669684,-0.13956815,-0.066896349,-0.163076743,57.90136458,329.4842618,31.60353459,left
0.110070445,0.023065295,0.99160248,-0.013119053,0.103535056,-0.308462679,62.06407118,331.787779,30.73948151,left
0.092614345,-0.031359363,1.000619292,-0.189659104,0.119112119,-0.885730326,59.71416508,338.1267427,30.66245064,left
0.125586987,0.064340033,0.915812731,-0.446222514,-0.127371997,-1.860060334,43.24445139,347.3557694,29.81565744,left
0.208988383,-0.138704881,0.971375644,-0.3365722,-0.25046134,-0.756837785,36.65481807,349.2197622,30.04353305,left
0.194684073,-0.209625304,0.965770602,-0.123991087,-0.103242837,-0.255011976,39.25626637,346.2033756,25.6254525,left
0.219413549,-0.137016311,0.94237572,0.055024356,-0.039968904,-0.009023372,44.81084258,344.5714547,25.01243619,left
0.226202041,-0.134121597,0.954560518,0.020610172,-0.002257943,0.007420536,50.78647946,343.41815,23.65060405,left
0.223292693,-0.125919923,0.956266463,0.033291448,0.03193849,0.002320742,56.58806263,342.1103497,22.24000948,left
0.202684775,-0.148595139,0.944568992,0.207388043,0.093941316,0.325468451,64.26826884,340.8371632,21.16261031,left
0.087522976,0.064582825,0.97722435,-0.032468341,-0.01656577,-0.039687477,59.79424905,339.1147466,17.72032816,left
0.091159664,0.067253545,0.989409208,-0.023411043,0.014805019,-0.019346988,66.06613173,339.2471396,16.03664555,left
0.086553194,0.083277851,0.983316779,-0.001725327,-0.045059778,-0.342494696,70.23140648,339.6103656,15.54029741,left
0.108858213,0.090804428,0.988678098,-0.07319656,-0.012073051,-0.257584423,72.67384115,340.3710233,14.78453185,left
0.110797785,0.081821099,0.99842602,-0.210641235,0.125677064,-0.663198948,74.83649077,342.524459,12.83261405,left
0.1040093,0.071381018,0.981610894,-0.697195411,-0.069799818,-1.622562766,62.2130376,346.4741525,11.04716845,left
0.115404263,-0.073815122,0.96016556,0.004077893,0.035879869,-1.317435622,57.5160736,348.2125159,11.59318829,left
0.12801145,-0.002412259,0.929947197,0.486661434,0.163856149,-1.247491479,53.49059575,351.7160495,16.73743662,left
0.088007867,-0.046797823,0.939451396,0.026069045,-0.242980093,-0.641513288,51.13795758,351.3240734,16.70948919,left
0.138921499,0.018209444,1.006468058,-0.451933026,-0.10553544,-0.394723684,51.76270474,349.5282767,12.03280232,left
