acc_x,acc_y,acc_z,gy_x,gy_y,gy_z,pitch,roll,yaw,direction
0.0686,0.1853,0.9178,-0.4447,-0.1628,0.3471,156.6962,355.6298,11.126,left
0.0672,0.1369,0.9448,-0.2089,-0.2276,0.196,159.8895,355.2152,11.0242,left
0.0458,0.0964,0.9726,0.0465,0.1952,-0.2237,156.3477,358.4606,12.6912,left
0.0143,0.1335,0.9485,-0.1124,-0.1729,-0.184,153.0719,0.0043,12.716,left
0.047,0.1408,0.9755,0.1091,0.1539,-1.3437,137.6481,3.5569,13.3127,left
0.0238,0.1559,0.949,-0.2776,0.0623,-0.9311,128.0266,5.2865,9.7275,left
-0.0027,0.0932,0.976,0.0828,-0.117,-1.4036,116.7014,5.6101,9.2426,left
-0.0491,0.1449,0.9499,0.0373,-0.1093,-1.06,107.3712,6.5249,8.9675,left
-0.1096,0.0073,0.9816,0.0712,0.0113,-0.9311,97.53,8.8244,7.1904,left
-0.12,0.1522,1.0165,-0.1017,-0.2242,-0.0792,98.6103,5.884,7.8256,left
-0.0948,0.0119,0.9638,-0.2776,-0.1998,1.9482,120.0761,1.9621,8.4581,left
0.0172,0.0311,1.0325,-0.3882,0.0721,1.7023,143.097,1.5061,3.9446,left
-0.1335,-0.0053,0.9911,-0.5189,-0.1231,2.2488,173.6423,0.2391,357.3399,left
0.0245,-0.0137,0.909,-0.0027,-0.1998,0.8444,183.4547,358.94,0.1756,left
0.0807,-0.0526,1.0121,0.0339,-0.2147,0.0387,187.3791,358.9585,0.3939,left
0.0587,-0.1146,1.0296,0.8296,-0.0678,-1.414,175.851,0.7341,5.2048,left
0.0645,0.2188,0.9268,-0.0898,0.1998,-1.3621,156.4345,2.688,6.4866,left
0.0327,0.1678,0.9848,-0.0134,0.0623,-1.37,140.3318,4.8501,4.5447,left
-0.02,0.1928,0.948,0.0391,-0.0293,-1.2035,125.8755,4.9573,5.6237,left
-0.0501,0.1311,0.9828,-0.2052,0.0376,-1.0041,116.2008,5.6508,2.9097,left
-0.1007,0.0991,0.9594,-0.1027,-0.0195,-0.15,113.8367,4.913,0.8438,left
-0.1232,0.1435,0.9158,-0.5327,-0.069,2.0983,135.939,6.0133,358.6439,left
-0.018,0.0437,1.0364,0.1774,-0.0531,1.3228,152.664,3.5655,2.5662,left
-0.0007,0.0507,0.9702,-0.3376,-0.1765,1.1399,165.1428,0.771,359.3513,left
0.0109,-0.0552,1.064,-0.6659,0.0281,1.4331,181.9977,6.2151,349.1876,left
0.0553,-0.0523,0.9209,0.0974,-0.1011,0.0281,183.8931,4.8989,354.1333,left
0.0669,-0.0509,1.0016,0.4642,0.1213,-1.1707,171.7727,5.1248,357.9902,left
0.0172,0.0146,0.8924,0.4214,0.1283,-1.2819,154.1649,6.0206,4.9631,left
-0.0037,0.1352,0.8892,0.1472,-0.2199,-1.9331,130.2341,3.6989,8.9494,left
0.0558,0.1034,0.9144,-0.0046,0.1735,-1.08,119.6906,5.9683,7.0104,left
-0.0469,0.1141,0.9816,-0.3101,-0.2898,-0.5046,115.2396,6.1317,3.0723,left
-0.0597,0.1287,1.0243,-0.0439,-0.0811,-0.1376,114.0043,4.5589,2.3317,left
-0.1145,0.0845,0.9955,-0.5112,0.5231,1.7836,131.1048,10.9249,359.3054,left
-0.0358,0.1216,1.0306,0.2246,0.3038,1.8047,155.3264,12.601,2.1932,left
0.0005,0.1323,0.9251,-0.71,0.2445,1.8349,179.2258,12.6722,4.6087,left
0.0458,0.0702,1.0004,0.0651,0.0277,1.3291,192.5248,11.5671,5.3951,left
0.0596,0.0032,0.9999,0.0947,0.1729,-0.2589,190.0998,11.2675,4.4909,left
0.0269,0.0306,1.0087,0.0648,0.19,-1.2784,175.6549,15.5836,359.0447,left
0.016,0.1158,0.9992,0.0975,0.0752,-1.6681,152.4967,15.9242,354.7687,left
-0.0091,0.1542,0.9692,-0.0809,0.1888,-0.7665,140.0305,15.492,355.2012,left
-0.0486,0.1231,0.9161,-0.2083,-0.3216,-0.8435,130.7593,11.3144,352.7955,left
-0.0385,0.1039,0.9078,-0.4544,0.1732,-0.3102,123.8618,9.4148,348.7217,left
0.0095,0.0124,1.015,0.1164,-0.0412,-0.6065,116.2739,8.828,348.5376,left
-0.0262,0.0041,0.9831,-0.0821,-0.0614,0.2732,118.9216,6.9905,348.0128,left
-0.1414,-0.007,0.9879,-0.0445,0.2135,1.739,140.2899,13.9614,352.4546,left
0.1013,0.0163,0.9692,0.135,0.216,0.9042,153.4188,13.3851,359.3231,left
-0.0787,0.0019,0.9719,0.0663,0.2233,1.899,170.3431,16.358,4.0435,left
-0.0995,-0.0729,0.9375,-0.1796,-0.3659,1.3346,181.7377,11.8587,5.9755,left
-0.0587,-0.1076,0.9921,-0.0742,-0.4997,0.1761,185.6557,7.3115,7.0229,left
-0.02,-0.0731,0.9816,0.1085,0.2263,-0.0418,184.0306,7.8823,6.8186,left
-0.0267,-0.0082,0.9819,0.158,0.5381,-1.3158,167.0553,12.9715,5.7377,left
-0.0353,0.0097,1.0525,0.1458,0.2354,-1.6793,144.5137,17.5004,359.9849,left
-0.1,-0.0492,0.9884,0.2973,-0.1097,-1.2736,127.0501,16.585,357.1142,left
-0.0474,-0.0427,0.917,-0.4742,0.5119,-0.9267,115.5646,17.8469,350.9818,left
-0.0316,-0.035,1.0788,1.0908,-0.2264,-0.7712,107.1591,14.0245,357.4402,left
-0.0091,0.0656,0.9685,-0.1037,-0.0239,-0.259,105.575,11.8379,357.471,left
-0.0276,0.0833,0.9526,0.03,0.0854,0.1314,108.5294,12.1211,358.5379,left
-0.0331,0.1153,0.9577,0.1009,0.1367,1.0013,120.7837,11.546,2.3912,left
-0.0121,0.1357,1.015,0.044,0.2396,0.7652,133.7074,13.1738,3.9023,left
-0.1128,0.0978,1.0077,-0.16,0.0909,1.3479,149.778,13.3676,5.1918,left
-0.036,0.1238,0.9475,0.1479,0.1245,1.2499,166.2457,12.2569,9.4464,left
0.0216,0.0699,0.9982,0.0902,0.0017,0.876,177.4234,7.4908,9.1397,left
0.0577,0.0398,0.9714,-0.2275,0.024,0.2808,184.0473,5.4346,6.9704,left
0.0841,0.1073,1.0043,0.1235,-0.421,-0.8561,168.9479,1.3753,7.0909,left
0.057,0.1236,0.9719,0.1073,0.225,-0.8215,158.9079,6.1544,9.0867,left
0.008,0.0517,1.0157,0.0431,-0.1706,-1.0699,149.4668,7.0592,6.4724,left
-0.0101,0.0702,0.9994,0.1158,-0.0224,-1.2696,133.6034,8.8644,3.5308,left
-0.0392,0.0714,1.0377,0.0819,-0.1745,-0.8836,124.4642,8.3071,1.8879,left
-0.058,0.0279,0.9655,0.1054,-0.1043,-0.6279,116.804,7.5489,1.8369,left
0.0225,0.0153,0.9163,-0.0485,0.1718,-0.6734,109.9472,8.651,358.5128,left
-0.0738,0.0274,0.996,0.1247,0.0188,-0.291,109.1577,9.4407,359.6938,left
-0.1145,-0.0244,0.9994,0.2398,0.5218,2.2453,136.0673,7.907,6.6328,left
-0.022,-0.0909,0.9368,-0.021,-0.2384,1.7242,157.0815,0.5667,6.5554,left
-0.0126,0.1389,0.9511,0.1274,0.2305,1.7245,181.2062,2.9482,8.2121,left
0.0087,0.0452,0.9904,-0.1209,-0.3822,1.3195,198.3382,359.9249,6.6323,left
0.0213,-0.015,0.9899,-0.1427,-0.0624,-0.2057,197.9629,359.4238,5.0479,left
-0.022,-0.0415,0.9918,0.313,-0.2194,-2.0566,177.2487,0.9051,5.8988,left
-0.0077,0.0602,1.0235,0.4156,0.1169,-2.1733,151.7181,6.5645,6.9562,left
0.023,0.1974,0.9716,-0.0624,-0.3046,-1.7182,133.1039,5.6552,6.6824,left
0.0361,0.01,1.0523,0.017,-0.0288,-1.1818,117.8723,6.1008,3.3536,left
-0.0116,0.052,0.9823,0.0748,-0.0789,-0.6623,111.1006,3.5786,2.9151,left
-0.0035,0.0692,1.0184,-0.2643,0.0699,0.9009,118.9773,4.07,2.1207,left
-0.0222,0.0078,0.9899,-0.3,0.0125,1.3636,138.3911,3.9774,1.1302,left
-0.0353,0.0396,1.0438,-0.1067,-0.0428,1.3746,155.6655,5.663,359.6393,left
-0.0007,0.0949,0.946,-0.315,0.0167,2.5383,186.4427,4.6058,359.4524,left
0.0509,0.0449,0.9475,0.0777,0.1945,-0.1039,185.3195,3.0992,1.0851,left
-0.0054,0.0286,0.977,0.7252,0.3647,-2.2538,152.7799,10.1106,3.5661,left
-0.0163,0.0267,0.9278,-0.3154,-0.0593,-0.931,142.7354,7.8072,356.6292,left
-0.1155,0.0792,1.0028,0.2335,-0.0281,-1.1869,128.7829,8.2357,358.7607,left
-0.0916,0.0707,0.9178,-0.0329,-0.3867,-0.5938,121.7238,3.736,359.3825,left
-0.0681,0.0595,0.9755,-0.0778,-0.1448,-1.0284,108.6496,1.5617,359.6143,left
-0.0407,0.2341,1.0228,-0.3307,-0.3375,-0.5877,103.7086,354.6,358.5435,left
0.0046,0.0049,0.9872,0.0071,0.3121,0.8756,114.1681,358.0456,359.0275,left
0.1399,0.1729,0.8805,0.1119,0.2175,1.1686,125.9578,0.0136,3.4131,left
0.0112,0.0775,1.0208,0.1238,0.0116,1.795,145.4182,0.6935,5.0509,left
-0.0622,0.1238,1.0623,0.231,0.1857,1.9428,164.64,1.2086,3.2625,left
0.049,0.0646,0.9536,-0.2079,0.1551,1.7531,182.1675,2.1883,2.047,left
0.063,0.0529,0.9838,-0.0077,0.1066,0.1531,183.8034,0.7382,2.2565,left
0.0642,0.0211,0.9641,-0.026,0.011,-1.0573,172.8514,358.7885,0.6253,left
-0.0617,-0.0051,1.0155,0.3466,0.1277,-1.6511,151.1718,2.5864,4.1374,left
0.0143,0.025,1.0026,-0.0526,0.0253,-1.5252,131.7823,2.2063,359.4902,left
0.0104,-0.0343,1.0213,0.0876,0.0085,-1.2024,116.7557,2.3717,359.4332,left
0.0318,0.0034,0.957,0.0192,-0.1662,-0.9248,104.4982,359.2023,1.6888,left
-0.0143,0.0202,0.9806,-0.1957,-0.0197,0.2089,107.5825,358.7748,359.9483,left
-0.0158,-0.0297,0.9575,-0.065,0.185,1.2654,125.2823,1.558,359.7287,left
0.023,-0.0907,1.0091,-0.0695,-0.1849,1.4105,141.8927,1.2657,356.9703,left
-0.0358,-0.0485,0.9987,-0.1978,-0.1718,2.3228,169.7086,2.71,355.1452,left
0.1079,-0.0345,0.9438,-0.3255,0.0808,1.3744,190.1613,3.219,353.7306,left
-0.0269,-0.0509,0.9877,-0.0017,-0.1146,0.1092,189.5312,1.8234,352.7566,left
-0.0316,-0.0456,0.9475,0.0667,-0.0018,0.0854,188.3522,1.0913,353.9401,left
-0.0064,-0.0458,0.9031,-0.1498,-0.3371,-1.6934,163.8431,354.7199,356.8979,left
-0.0069,-0.0991,1.0174,0.1428,0.2646,-0.8467,154.9232,357.3714,356.9141,left
-0.0336,-0.0145,0.9429,0.162,0.1329,-1.3632,141.9616,359.4006,0.3153,left
-0.0353,0.0102,1.0001,0.1504,0.1384,-1.2334,126.6795,0.907,2.1805,left
0.0289,-0.0248,1.0416,0.1562,0.1167,-0.8553,120.9428,3.9867,2.6596,left
-0.022,-0.0552,0.9175,0.1137,-0.4257,-0.6131,113.2955,0.6693,2.9347,left
0.0305,0.0102,1.0718,0.4412,0.1854,-0.8257,108.4185,3.4961,6.4988,left
0.0104,-0.0123,1.0038,-0.0039,-0.0455,0.1427,111.4996,2.7861,4.9862,left
-0.0252,0.0189,0.9487,0.1702,0.0647,1.1998,127.3077,2.8888,5.7204,left
0.0252,0.0481,1.0408,-0.0799,-0.2208,1.4219,146.3643,359.3679,3.6806,left
0.0172,0.0515,0.899,0.2832,0.1805,1.0911,160.2322,359.2483,9.1833,left
-0.0249,0.0842,1.0033,-0.1123,0.1796,1.2252,171.6253,358.8886,6.8757,left
-0.0405,0.0148,0.978,-0.05,-0.3195,0.7514,180.6831,356.5716,6.1432,left
-0.0691,0,0.9909,-0.1096,-0.0501,0.6754,185.9269,354.9785,3.1955,left
0.0686,-0.0229,1.0172,-0.1077,-0.037,-0.368,183.3863,355.3076,1.5486,left
-0.001,-0.0343,1.0177,-0.0008,0.543,-1.4956,161.7277,2.5185,357.1682,left
-0.0146,0.0612,0.9755,0.2258,-0.0296,-1.5271,141.5578,1.9328,359.2157,left
-0.0126,-0.0133,1.0542,0.173,-0.2098,-1.3218,126.3337,1.0622,358.9,left
-0.0647,0.0743,0.9843,-0.2296,0.1222,-0.8906,114.1352,5.2781,357.2567,left
-0.1303,0.0481,1.0459,-0.0109,0.0705,-0.7079,106.1523,5.3372,356.7679,left
0.0279,0.0825,1.0464,0.0957,-0.0159,-0.5986,99.7326,3.641,359.2171,left
0.0158,0.0257,0.9879,-0.0399,-0.2037,0.395,103.8463,1.9988,358.806,left
-0.0696,0.0425,0.9197,-0.0359,0.2205,1.7875,125.7114,4.6536,0.9944,left
0.0201,0.0185,0.9933,-0.5051,-0.2315,1.7606,149.3369,3.4846,355.3435,left
-0.0711,0.0051,0.9921,-0.1502,0.189,1.2343,163.44,5.8008,358.1581,left
-0.0652,-0.0133,0.9507,-0.0124,-0.1906,1.6201,182.9335,4.677,359.0592,left
-0.0383,0.0034,0.9787,0.162,0.2541,-0.2217,183.1905,8.124,2.2819,left
0.0175,0.025,0.9426,-0.1025,0.1869,-1.8536,159.5879,6.8642,359.4959,left
-0.0007,0.0527,0.9848,0.1522,0.0128,-1.6768,138.1594,6.3089,359.7988,left
-0.0444,0.0175,0.9638,-0.1951,-0.1423,-0.7812,127.5591,4.4365,356.8478,left
0.0002,-0.0043,0.9799,-0.1096,-0.0837,-1.0775,118.7269,3.1915,356.7543,left
0.0015,0.0068,0.9675,0.0838,0.1652,-0.8112,110.1912,3.1543,357.317,left
-0.0044,0.0592,0.9148,-0.0179,0.0684,-0.2773,108.2886,3.8935,359.5625,left
-0.0064,-0.008,0.9694,-0.1053,0.0553,0.3761,113.7001,3.9514,359.0568,left
0.0114,-0.0113,0.9624,0.0154,-0.0455,1.49,131.7433,4.2565,359.2098,left
-0.0755,-0.0099,1.0201,-0.086,-0.066,2.708,163.6953,5.5443,359.5045,left
-0.0141,0.0012,0.9989,-0.134,-0.405,1.8217,187.9734,2.444,358.7236,left
-0.0047,-0.0309,0.9982,-0.1062,0.215,1.0825,200.5826,5.6423,358.6879,left
-0.0538,-0.0591,1.0001,0.3602,-0.1747,-0.9309,192.6897,4.3978,0.0521,left
-0.0274,0.051,0.9646,-0.0091,-0.0324,-1.9064,163.4942,4.0112,355.1592,left
-0.0252,0.024,0.946,0.2396,-0.0758,-1.5705,143.2859,0.6559,357.5952,left
0.0553,0.0049,1.053,0.1088,0.0076,-0.8387,130.888,1.6615,356.6678,left
0.0461,-0.0121,0.9709,-0.0396,-0.0684,-0.9162,120.7671,359.0917,355.7804,left
0.0553,0.0381,0.977,-0.2195,-0.2422,-0.5766,115.0612,355.7296,354.1041,left
0.0422,0.0379,0.9706,-0.1462,0.0657,-0.3933,110.9053,355.8698,355.0089,left
0.08,0.0129,0.9862,-0.0515,0.0506,0.1378,112.7339,356.4698,354.9558,left
-0.0368,0.0811,0.9738,0.0215,0.3493,1.7706,133.7159,3.0345,356.835,left
-0.0094,0.0017,1.0257,-0.2574,-0.2417,0.9334,146.2207,2.9198,357.2635,left
-0.022,0.0034,0.9848,0.5654,0.3683,2.0645,166.7648,6.9207,5.713,left
0.0145,-0.0528,0.9989,-0.3197,0.0454,1.9398,191.7574,3.9739,2.9105,left
0.0536,0.0432,0.9524,-0.2018,-0.1717,1.3067,205.5669,0.9075,2.4108,left
0.0296,-0.0475,1.0118,0.1507,-0.0193,-0.992,198.5233,0.8552,3.1122,left
0.0167,0.0898,0.9538,0.0517,-0.2982,-1.7342,175.5806,358.4263,3.9043,left
0.0827,0.0245,0.9465,-0.2058,0.5063,-1.6032,152.0442,1.3562,4.1039,left
0.0015,-0.0099,0.9477,-0.0631,-0.019,-1.371,136.6223,1.9135,2.9244,left
-0.0343,0.0959,0.9382,0.0493,-0.3018,-0.7076,127.1446,3.4274,5.6342,left
0.0686,-0.0649,1.0525,0.0703,0.0799,-0.9947,115.8291,2.9978,3.6102,left
0.0623,-0.021,1.0001,0.1256,0.054,-0.3738,111.743,4.1907,3.5563,left
0.0419,-0.0302,1.026,0.2133,0.2534,1.1888,124.4828,4.8705,6.3475,left
0.0933,0.0112,0.947,0.049,-0.0056,1.3045,143.0817,1.1477,9.6734,left
-0.0153,-0.0019,0.9965,-0.0415,-0.0523,1.7392,164.6726,357.442,8.899,left
0.0221,-0.0203,0.9533,-0.0812,0.0827,1.6231,181.1159,355.1543,7.1502,left
0.0495,-0.0063,1.0174,0.2328,0.0989,0.927,190.7834,353.1312,1.7176,left
-0.0037,-0.014,0.9706,-0.4929,-0.2499,0.6192,200.4618,353.0117,355.3977,left
-0.0002,0.0558,1.0077,0.3052,-0.3938,-1.1255,185.0211,348.9677,1.4122,left
0.0509,0.0821,0.9565,-0.159,0.4507,-2.017,160.4441,351.9278,4.526,left
-0.1449,0.0927,1.014,0.2069,-0.3306,-1.6804,137.7855,354.8904,9.1914,left
0.0713,-0.013,0.9933,0.0939,0.0635,-0.956,126.6673,357.757,10.9846,left
-0.0454,-0.0166,0.968,0.1577,0.2733,-0.2629,123.9177,358.7313,9.7241,left
-0.0583,0.0595,1.005,-0.3057,-0.0325,-0.8084,114.7655,1.6393,6.7557,left
-0.0417,0.0034,0.9246,0.116,0.0366,-0.0804,114.0663,3.7228,8.9849,left
-0.1012,-0.021,0.9994,-0.3144,0.0515,2.192,135.6165,3.5586,4.6262,left
-0.0012,0.0296,0.994,-0.1299,-0.257,1.4202,155.994,357.8165,2.5109,left
-0.0686,0.0772,0.9911,-0.3583,0.0628,1.9253,177.4386,0.1231,3.0879,left
0.0584,-0.0651,0.9992,0.2528,0.0555,0.8621,190.1481,0.4932,4.4541,left
0.0099,-0.0118,1.0274,-0.0621,-0.246,0.4043,196.2074,359.6058,0.2562,left
0.071,-0.1235,0.9504,0.1878,-0.3972,-2.5123,170.7186,353.3956,4,left
-0.1024,0.0444,1.0238,0.3524,-0.1061,-1.8816,142.5476,358.4505,9.1131,left
-0.0852,-0.0285,1.0143,0.1169,-0.1259,-1.5416,127.5027,1.0608,8.8158,left
-0.0385,-0.0608,0.9682,-0.041,0.2895,-1.1776,113.8596,8.1466,7.6481,left
0.0453,0.0153,0.9685,-0.0581,0.3948,-0.9088,102.8134,10.9027,6.3754,left
0.0148,-0.0579,0.968,0.1145,-0.1849,-0.249,100.0281,8.8469,6.0491,left
-0.0876,-0.0039,0.9782,0.4569,0.1071,2.374,128.6925,8.982,13.8676,left
0.0242,0.0711,1.0184,-0.0178,0.0036,1.1245,144.3247,5.6791,13.5393,left
-0.0202,0.1702,0.9777,-0.274,0.0521,2.1911,169.8415,359.9058,12.7604,left
-0.0067,-0.0485,0.9477,-0.2401,0.4229,1.4281,187.8732,0.4463,8.1335,left
-0.037,-0.0441,1.0516,0.0766,-0.14,0.2885,191.472,0.372,6.7061,left
0,-0.0094,0.9431,0.3322,0.061,-1.3709,180.9208,1.3897,9.3831,left
0.0068,0.1141,1.0052,0.0378,-0.1296,-2.0044,161.3332,3.5751,8.1961,left
0.0148,0.067,0.9979,-0.0816,-0.2075,-1.534,146.1387,2.4542,7.2442,left
-0.0504,-0.0367,0.9726,-0.2991,0.2433,-1.7295,125.3982,8.0497,2.0153,left
0.0112,-0.0246,0.9631,-0.0349,-0.0096,-1.1995,111.2225,8.4665,359.6939,left
0.0439,-0.0046,0.9672,-0.0243,0.299,0.1451,111.5035,10.0232,359.1661,left
0.0318,-0.0082,0.9414,0.1281,-0.2835,2.6279,141.3661,4.0299,4.885,left
-0.0096,-0.0876,1.004,0.2927,0.123,2.332,171.3683,3.7583,6.6012,left
0.0267,0.0862,0.9326,-0.0888,0.0057,1.5556,190.4581,359.3676,6.6515,left
0.0289,0.0274,1.0252,-0.1401,-0.4805,0.0892,190.5532,357.654,3.235,left
0.1069,0.0359,0.9999,0.2066,-0.1638,-1.397,172.8337,355.5366,6.7826,left
-0.0738,0.0726,0.9607,-0.2326,0.0143,-1.4264,152.5817,357.1636,5.2129,left
-0.0879,0.1066,0.9923,-0.0989,0.0815,-1.5424,131.4529,0.3042,4.3767,left
0.0242,-0.008,1.0018,0.0132,-0.4176,-1.2715,116.6477,356.1101,3.1086,left
0.0327,-0.0174,1.0018,-0.488,0.0442,-0.7172,107.1649,356.3457,1.0462,left
0.0092,-0.0125,1.0706,0.0603,-0.0868,0.4872,109.861,357.6549,0.8365,left
0.0417,0.0821,1.0316,0.0798,-0.3672,2.7327,143.3755,351.5427,0.1489,left
0.0453,-0.0113,0.9921,-0.0219,0.1508,1.4615,169.0286,353.0776,356.1507,left
0.0177,0.0085,0.92,-0.079,0.0769,1.1151,181.6827,354.695,355.647,left
0.0955,0.0299,0.9548,0.2484,0.1444,0.1988,185.3263,355.3655,358.1071,left
0.0853,0.0643,0.9472,-0.1082,-0.0599,-0.0089,184.1295,354.4896,357.4407,left
0.063,-0.0159,1.0394,0.0036,-0.3211,-1.9472,167.1233,351.6362,359.0081,left
0.0778,0.0813,0.9134,-0.4621,-0.026,-1.6982,148.4732,352.1077,358.2358,left
0.1123,-0.0186,1.0065,-0.8543,-0.1809,-1.6075,132.8772,350.8499,354.0404,left
0.1059,-0.04,0.987,-0.1414,0.1099,-1.3629,119.509,352.7621,354.7415,left
0.1658,0.0199,0.9626,0.0699,0.302,-0.7761,109.5443,352.9813,357.881,left
0.1142,0.0024,0.9836,-0.0658,0.0883,0.0627,111.183,353.2627,356.5677,left
0.0531,0.0005,0.9319,0.1251,-0.028,1.9044,135.0563,354.2567,357.7788,left
0.0102,0.0456,0.947,0.2845,0.4154,2.0639,158.4412,358.8001,359.9651,left
0.1215,-0.0586,0.9604,-0.0038,-0.8157,1.9655,184.2041,350.2237,357.3313,left
0.0417,0.0282,1.0367,0.0591,0.0233,-0.4132,181.5204,353.0033,359.6687,left
0.0786,0.0609,1.0491,0.2689,-0.0412,-0.7611,173.1276,357.4844,1.2492,left
0.0352,0.094,1.0262,-0.1336,-0.1691,-1.8698,152.0064,357.5683,0.3422,left
-0.0062,0.0269,0.9524,-0.2778,0.6641,-1.448,136.3941,5.3244,356.2928,left
-0.0763,-0.0012,0.9663,0.0542,-0.1976,-0.7702,126.6367,0.6764,353.5858,left
0.1683,-0.0685,1.0018,0.056,-0.127,-0.9962,120.2729,352.0646,352.6122,left
0.0432,0.0129,0.9775,-0.214,0.2578,-0.1587,118.4247,355.1931,352.2981,left
0.0514,0.0408,1.0128,0.2756,0.117,1.5633,137.5018,355.926,354.537,left
0.0592,0.0223,1.0472,0.316,-0.0036,1.1925,150.6645,357.4064,355.7201,left
0.0669,-0.0017,0.977,0.1199,0.3455,1.6763,171.5632,3.1187,356.1737,left
0.0192,0.0427,0.9867,0.0906,-0.1261,1.7081,187.8226,3.648,357.3159,left
0.0718,0.0112,0.9621,0.1223,-0.0048,0.7227,197.0785,0.3079,0.1784,left
0.1028,0.0626,0.9724,-0.1071,0.0839,-0.2652,193.8373,0.4265,0.2614,left
0.0713,0.0206,0.9377,0.1137,0.0265,-2.0108,174.6663,359.6336,1.4955,left
0.007,0.1214,1.0004,-0.382,-0.0205,-1.8544,154.3555,0.3902,0.4333,left
0.0141,0.0529,0.9429,-0.3891,0.2562,-1.742,137.0783,2.2383,357.4449,left
-0.0368,-0.0058,1.0028,-0.2012,0.0121,-1.2793,123.0993,2.2787,356.167,left
0.0262,-0.0169,0.9507,-0.028,0.1502,-0.5942,118.7377,2.7214,355.5623,left
-0.0158,-0.0294,0.9794,-0.0173,-0.1736,-0.1229,117.3522,1.1873,355.6184,left
-0.041,-0.0077,1.0079,0.19,-0.1418,1.2934,127.7476,1.3298,356.7013,left
0.007,0.008,1.0138,0.2536,0.0949,1.1657,144.2116,3.486,0.0323,left
-0.0197,0.0745,1.0143,0.026,0.2339,1.276,155.7505,5.4901,2.1653,left
-0.0015,0.084,0.9514,0.0807,0.2266,1.735,177.8932,6.3887,5.7416,left
0.0497,0.0405,0.997,0.0841,0.1203,0.5839,187.8764,6.6424,6.7833,left
0.0412,0.0935,1.0026,-0.0619,-0.2261,-1.155,173.4187,3.253,4.3639,left
-0.0138,0.0976,1.0155,0.2279,-0.1546,-1.3767,156.1866,3.4917,5.388,left
0.0262,0.0842,0.9146,-0.3332,0.0244,-1.6443,136.6482,3.2967,3.0681,left
0.033,0.0653,0.9736,-0.233,-0.0431,-1.031,122.3182,1.8525,0.1717,left
-0.0131,0.0415,0.9933,0.1726,-0.1061,-0.9772,114.1589,1.6893,1.0975,left
-0.0146,0.016,1.0162,-0.1716,0.229,-0.3544,110.6928,5.2653,357.32,left
-0.022,0.0255,0.9585,0.0651,-0.3828,1.9272,131.4002,3.4435,357.7367,left
-0.0101,0.091,0.9933,-0.0616,0.1588,1.2839,150.2026,7.3688,0.5,left
-0.0012,0.0998,1.0279,0.0508,-0.1696,1.7402,169.8804,7.7549,3.7917,left
0.1307,0.0767,0.9636,0.0068,0.0344,0.7314,180.6871,7.8173,5.3187,left
-0.0629,0.0296,0.9979,-0.0317,-0.0419,0.3087,184.0704,6.2654,6.0392,left
0.1392,0.0736,0.9845,0.0709,0.1789,-0.5954,175.8379,8.9246,7.0788,left
0.0764,0.0435,0.9492,-0.1471,0.1108,-0.9451,164.9195,8.728,4.1291,left
0.0589,0.0396,0.9665,-0.0998,0.196,-1.8633,148.4024,10.7837,0.4201,left
0.0162,0.0736,0.977,-0.0809,0.109,-1.0905,132.667,9.8043,356.4756,left
-0.0074,0.0422,1.0062,-0.1484,-0.1244,-1.1128,120.1089,7.5278,353.7396,left
0.0238,0.0301,0.9828,-0.1142,-0.052,-0.7946,110.5673,5.3125,352.3402,left
0.0279,0.0248,0.9882,-0.0671,-0.0596,-0.3505,108.3289,4.1635,352.0118,left
0.0213,-0.0186,0.9789,-0.0938,0.1481,-0.0748,108.8023,4.4433,351.5981,left
-0.0022,-0.0181,0.996,-0.0034,0.0238,0.5871,114.6978,4.9923,352.1368,left
0.0269,-0.0275,0.9714,0.2058,-0.0324,1.3293,133.1893,4.6812,356.0653,left
0.0126,0.0566,0.9663,0.3503,0.3231,1.891,155.9399,8.2789,2.9382,left
0.0618,-0.0089,0.9706,-0.0966,-0.3922,2.0462,181.251,2.6677,3.4795,left
0.0356,0.0097,0.949,0.2684,-0.023,0.9924,193.093,0.3435,6.5362,left
0.0805,0.1049,1.0135,0.0445,-0.3394,0.2133,194.0303,357.322,6.8656,left
0.087,0.0503,0.9809,0.0741,0.0189,-1.3851,183.2528,358.7978,6.7296,left
-0.057,0.1151,1.023,0.1783,0.2287,-2.5469,153.7699,7.3002,8.0981,left
-0.0304,0.0517,0.9689,-0.2429,-0.2184,-2.1401,131.4765,7.7826,4.1532,left
-0.0291,0.0138,1.0067,-0.0605,-0.2328,-1.2916,118.6281,6.2507,0.5314,left
0.0235,0.0068,0.987,-0.0042,-0.0749,0.244,118.0897,5.8272,0.7236,left
-0.0104,-0.0157,1.0128,-0.0345,0.3203,1.8964,134.245,5.7538,0.7997,left
-0.0385,0.0029,1.0043,0.124,-0.0828,1.4874,155.9643,3.1392,2.0266,left
-0.0388,0.119,1.0174,0.1912,-0.2081,2.1166,179.4656,0.5904,3.6499,left
0.041,0.0371,0.9989,0.0342,-0.6332,0.7165,189.5183,354.0161,2.3116,left
0.1069,0.0362,0.9838,0.0788,-0.1452,-0.9796,179.7209,352.8281,4.2981,left
0.0325,0.0876,1.0167,-0.0155,0.2046,-0.6772,168.8998,357.0746,3.3044,left
0.0138,0.0767,0.9633,-0.0925,0.1026,-1.6256,149.8228,359.2666,3.4377,left
-0.0437,0.0471,1.0143,0.0816,0.0329,-1.4802,130.4775,2.6118,3.5956,left
-0.0148,0.0097,0.9697,0.0917,-0.1577,-1.2642,114.4321,1.1567,3.7689,left
0.0201,0.0847,0.9631,-0.0516,-0.0502,-0.5278,108.2218,0.471,4.5229,left
0.0126,0.0461,1.0089,0.0129,0.0625,0.5189,114.6937,0.2403,4.5552,left
0.0276,0.1532,0.9609,0.1036,0.1221,2.218,143.1606,358.2625,5.9009,left
0.0322,0.1008,0.9979,0.0626,0.2308,2.0528,170.1759,358.2758,7.0477,left
0.0577,0.069,0.9507,0.1271,0.3432,1.8258,194.5131,356.1983,6.4394,left
0.1367,0.067,0.9999,0.0189,0.1872,-0.0936,194.8846,357.4713,6.7443,left
0.0482,0.0245,0.9789,-0.2584,-0.1408,-2.1534,169.5643,358.6297,5.3543,left
0.0322,0.0354,0.9548,-0.3018,0.168,-2.7059,142.7039,0.509,2.9248,left
-0.0091,0.0512,1.0498,-0.2251,-0.2636,-1.5184,122.6255,1.3551,359.4928,left
0.0912,-0.0133,0.9465,0.1044,0.0366,-0.8119,112.5129,0.4803,359.4368,left
0.0276,0.0136,1.0189,-0.055,0.138,0.3869,116.5142,3.3067,359.8708,left
-0.0007,0.0466,0.9801,0.0095,0.1677,1.7461,137.2644,4.4423,1.1122,left
0.0048,0.0172,0.9994,0.073,0.0259,1.2781,155.3849,4.8687,2.4755,left
-0.0328,0.0039,0.9643,-0.0651,0.3763,1.8475,178.5464,7.2294,5.4549,left
-0.0531,0.0245,0.967,-0.0596,-0.1576,1.5039,197.9997,4.4275,10.102,left
0.0182,0.0913,1.0084,0.0024,-0.0018,0.1546,198.7637,4.3947,11.1273,left
0.0439,0.1,0.9731,0.1875,-0.0442,-1.4681,178.7747,4.9924,13.3032,left
-0.0284,0.0158,0.9733,-0.3095,-0.025,-2.568,146.5942,9.7577,4.1121,left
-0.042,0.0337,0.9992,-0.0138,0.2233,-1.2534,127.6053,13.4546,359.7274,left
-0.0627,0.0396,1.0035,0.0662,-0.2846,-1.0921,115.743,11.7612,357.3604,left
0.0087,0.0228,0.9706,-0.0352,-0.2388,-0.6141,108.1542,8.0851,355.6595,left
-0.0257,-0.0082,1.0179,-0.0425,0.0444,1.1054,118.9049,8.9885,356.0477,left
-0.002,0.034,0.9633,0.2409,0.1458,2.1115,146.1007,8.2112,1.4659,left
-0.0365,0.0721,0.9451,-0.0309,0.2316,2.0865,169.8679,6.6057,5.691,left
0.0776,0.0697,0.8854,-0.3278,-0.0292,1.3235,187.7512,0.9645,5.316,left
0.0465,0.075,1.0184,0.1282,-0.178,-0.451,182.2867,2.99,6.691,left
0.0667,0.0466,0.9741,-0.081,0.38,-1.8853,159.1765,9.0421,3.8328,left
-0.0462,0.1178,0.9368,-0.1063,-0.2644,-1.9089,133.6688,5.1689,3.0654,left
0.0735,-0.0092,0.9392,0.0241,0.2915,-1.5216,110.3795,3.3617,359.1421,left
0.0162,0.0197,0.9353,-0.1024,-0.098,-0.4907,106.4409,1.4435,359.6751,left
0.0904,-0.0101,1.0091,0.2956,0.3907,-0.2293,104.2171,4.364,1.6782,left
0.0095,0.0588,0.9782,0.3643,-0.2498,2.1528,129.9786,359.8537,5.7958,left
-0.02,0.0758,1.0257,0.3371,0.3125,2.201,156.9511,359.5594,8.4214,left
-0.003,0.1343,0.9365,-0.0398,-0.0854,1.5132,173.5715,357.1884,8.212,left
0.0121,0.1331,0.9943,-0.2591,-0.0201,1.2878,188.3238,357.2377,6.0942,left
0.0044,0.0862,0.9984,0.0739,-0.1383,-0.3915,182.3278,358.4955,6.7993,left
0.0048,0.0549,0.9648,0.0482,0.1708,-1.4599,163.0214,0.843,9.0532,left
-0.0439,0.066,0.9599,0.0143,-0.2482,-2.1657,134.969,3.0835,8.172,left
0.0053,0.0041,1.005,-0.0911,0.3134,-1.1508,123.0365,5.546,7.8456,left
0.0204,0.0549,0.9748,-0.2126,-0.0506,-0.9669,113.0906,5.1359,4.37,left
-0.0252,0.1022,1.054,-0.0801,0.0349,-0.3408,108.9657,9.9364,3.5292,left
0.0562,-0.0051,1.0669,0.0876,0.0773,1.015,119.3978,9.4897,6.2129,left
-0.0131,0.0396,0.9497,-0.241,0.0175,1.6513,140.9093,8.0021,6.5087,left
0.0007,-0.0371,0.9879,0.2116,-0.109,1.2967,158.5703,5.9255,9.3693,left
0.0027,0.0041,0.9804,0.2153,-0.1487,1.4402,175.3369,1.2916,12.2171,left
0.0441,0.0578,0.9638,0.1896,0.2099,0.5624,184.8626,0.2025,15.4022,left
0.0102,0.0384,1.0169,0.0733,-0.2223,-1.127,171.4724,2.4202,14.8689,left
-0.0188,0.0753,0.9453,-0.1253,0.1433,-2.0744,145.7608,10.1673,7.4543,left
-0.0597,0.0216,1.0552,0.2745,-0.2846,-1.4739,125.2511,12.4533,1.8455,left
0.1433,-0.0709,0.9975,-0.0734,-0.0616,-0.5772,118.7333,8.1157,359.6793,left
0.055,-0.0109,1.0433,-0.1964,-0.0464,-0.8991,110.1153,11.0831,352.2062,left
0.0451,0.0578,0.9743,0.1747,0.1638,-0.2956,107.2041,9.2315,354.9898,left
0.0213,-0.0569,0.9928,0.1762,0.3367,1.6329,123.37,10.7389,359.1037,left
-0.023,-0.068,0.9901,0.1365,-0.2009,1.6134,148.0055,6.771,4.3404,left
-0.0691,0.0447,0.9879,0.2104,0.8996,2.9182,180.6795,7.0221,11.4789,left
0.0007,-0.0142,0.9953,-0.219,-0.0247,1.1128,194.1948,1.5235,10.3223,left
-0.0183,0.0221,0.9541,0.0888,-0.0854,0.7145,200.4837,358.7035,12.3696,left
0.0436,0.0024,1.0091,0.0772,0.0025,-1.0625,189.3819,1.154,10.5858,left
-0.0114,0.0995,0.9448,0.156,-0.4058,-2.0546,162.8712,4.2715,12.0342,left
0.0065,-0.0815,1.0386,0.1282,-0.0799,-1.8459,137.5394,6.2373,5.6666,left
0.0204,0.049,0.9626,-0.1082,-0.2058,-0.9312,123.8441,3.9541,3.7067,left
0.0994,-0.0186,0.9719,0.0757,0.2554,-0.9086,116.5995,5.4908,1.8402,left
0.0201,0.0112,0.9797,0.0097,0.1858,1.5605,131.8122,5.0011,1.991,left
-0.0504,0.0896,1.0109,-0.1531,0.1473,1.6986,153.0061,4.9778,2.975,left
-0.0499,0.043,0.9511,0.0415,0.0978,1.0505,168.5221,4.9936,5.6292,left
-0.0249,0.0238,1.0021,0.0763,-0.1896,1.3254,184.5487,1.9263,5.5948,left
0.0626,0.0724,0.985,-0.0114,0.2127,1.2459,197.9809,1.8075,4.4368,left
0.0919,0.0534,0.9548,-0.0434,-0.1047,-0.521,193.2858,2.2105,5.2447,left
0.0434,0.0015,1.0243,-0.073,0.1757,-1.4923,175.6555,6.2087,0.7965,left
0.0337,0.0017,1.0269,0.0247,0.0492,-2.323,143.3965,5.9014,353.4724,left
0.0039,0.0017,0.9748,-0.0679,0.096,-1.2699,128.28,3.8595,352.1622,left
0.0143,-0.0034,0.9996,-0.3195,-0.3164,-0.7476,118.7687,359.4818,349.6991,left
0.0036,-0.0289,0.986,-0.0291,0.0569,-0.4083,114.5749,2.0411,349.6659,left
0.0388,-0.0299,1.0174,0.0442,0.027,0.8446,119.8431,2.5291,350.3165,left
0.0264,-0.0451,0.9931,0.2052,0.1256,1.7951,144.4239,6.995,353.337,left
-0.0489,0.007,1.0026,0.0369,0.1656,1.7148,160.1895,9.2067,358.3432,left
-0.0508,0.0646,0.9702,0.2831,0.0593,1.9888,178.3025,9.8803,2.7071,left
0.0589,0.0954,0.9665,0.1408,-0.2317,1.1907,187.7587,4.9413,5.786,left
0.0136,0.0575,0.9694,-0.0341,-0.1069,-0.0741,188.5073,3.3103,5.0219,left
0.031,0.1076,0.987,0.0863,-0.1518,-1.7048,166.6992,3.2881,3.8596,left
-0.0096,0.0262,0.995,-0.0017,-0.3662,-2.0808,141.7049,0.5541,1.8637,left
0.0027,0.0707,0.9009,-0.3761,0.2083,-1.6385,120.9012,0.9584,1.2369,left
0.0114,0.0109,0.9475,-0.1959,-0.2086,-0.7763,111.8286,356.3139,358.8161,left
0.055,0.042,0.9799,-0.0111,-0.0843,-0.6941,105.0584,355.1414,1.2096,left
0.041,0.0189,0.9901,-0.0218,-0.0268,0.0907,106.815,354.9144,1.2649,left
0,-0.0053,0.9994,-0.0902,0.2215,1.7233,122.5483,357.8018,358.8169,left
0.0451,0.0743,0.9804,0.0158,0.1448,1.6817,141.1451,359.7945,359.5837,left
-0.0247,0.176,1.0152,0.4468,0.3076,2.2358,165.0782,1.509,5.0886,left
0.0165,0.1724,0.9831,-0.5887,0.0776,1.5956,183.95,1.4922,2.9026,left
0.0158,0.0724,0.9926,0.298,0.0159,0.2761,188.7257,2.2637,5.4076,left
0.0279,0.0736,0.9721,0.0402,-0.2678,-1.1481,178.7143,359.7211,5.6679,left
0.055,0.1498,0.9904,0.0402,-0.0351,-1.7712,161.3154,2.2836,6.7962,left
-0.0133,0.0464,0.9945,-0.0086,-0.1456,-2.0345,135.6314,3.0499,1.5595,left
-0.0602,0.093,1.044,-0.2817,-0.7929,-0.9022,118.2645,0.1641,358.5737,left
0.0861,0.0121,0.9472,0.0946,-0.1062,-0.598,112.3077,357.4003,1.4022,left
0.0022,0.032,1.0555,-0.2234,-0.3604,-0.3861,107.8312,357.4681,358.1386,left
-0.061,0.0044,1.0294,0.3261,0.0159,1.055,118.795,359.5846,0.3651,left
-0.023,0.0811,0.994,0.0335,0.2807,1.2718,136.9874,2.6145,3.0676,left
-0.0165,0.1656,0.9616,-0.3003,0.1821,1.4465,157.9587,5.9315,3.6588,left
-0.003,0.243,0.9992,0.302,0.2777,1.1493,171.7163,7.5871,9.9387,left
-0.0629,0.1571,0.9243,-0.0233,0.3879,1.0544,186.4123,8.6179,11.2495,left
0.0048,0.1547,0.9809,0.1128,-0.0207,0.0324,188.3799,6.4165,10.498,left
0.0279,0.1612,0.9448,-0.0509,-0.3899,-1.5436,169.6175,3.37,9.3013,left
0.0005,0.0923,1.0204,-0.0277,-0.0671,-1.35,150.4021,4.797,6.9403,left
-0.0274,0.1017,0.9521,-0.1938,-0.0769,-1.6297,129.9974,4.9587,4.0652,left
-0.0212,0.0284,0.9828,-0.1489,-0.3133,-1.2485,114.5392,1.9233,2.202,left
0.0385,-0.0017,0.9872,-0.1563,-0.2528,-0.9312,105.1277,357.858,0.578,left
0.0718,-0.0082,1.0043,0.0484,0.0465,0.4041,108.1876,358.201,0.7596,left
-0.0185,0.0779,0.9207,-0.2445,-0.0589,1.5431,129.6691,357.337,359.955,left
-0.0183,0.0318,0.9699,0.2435,0.2338,1.4249,149.2521,0.645,3.0947,left
-0.0363,0.0687,0.9594,0.1079,-0.0427,1.2649,163.9145,359.882,4.2342,left
-0.0252,0.077,0.9502,0.1165,0.318,1.4295,177.2419,0.6184,6.4173,left
0.0099,0.0631,1.0187,-0.1108,-0.4739,0.9435,186.7772,356.1965,3.671,left
0.0662,0.085,1.0062,0.1913,0.0679,-0.1545,184.0917,356.8407,4.5031,left
0.0693,0.0954,0.9957,-0.097,-0.005,-0.0914,181.9381,356.5592,4.5409,left
0.0313,0.0762,0.997,-0.1031,-0.0872,-0.4069,177.037,357.7775,3.9456,left
0.0143,0.0728,0.9597,0.2368,0.1593,-0.8525,166.9092,356.6505,6.1097,left
-0.0072,0.1364,0.9914,0.0792,0.1855,-0.7939,158.729,359.5439,6.4239,left
-0.022,-0.0089,1.0169,0.0618,-0.2134,-1.73,139.5049,0.2832,4.9499,left
-0.0965,0.0673,0.9953,0.0187,-0.1978,-0.9142,128.7012,1.128,6.4681,left
-0.0183,0.0189,0.9799,-0.0762,-0.0313,-0.9087,118.8274,1.369,4.8519,left
-0.0234,0.0238,0.996,-0.0634,0.0634,-0.8599,109.8074,3.2894,3.1886,left
-0.0284,0.0126,0.9906,0.0245,-0.1043,-0.2087,108.5407,3.4575,4.1405,left
-0.0146,-0.0186,0.9979,-0.0158,0.1086,0.5854,114.2257,3.283,4.1011,left
-0.0467,0.0022,0.9762,0.0117,-0.0319,1.4999,133.667,1.8711,4.2428,left
-0.0259,0.0002,1.0167,0.4622,0.1526,1.8264,157.4705,1.3187,7.1164,left
-0.0861,0.0864,1.0479,0.1153,-0.5805,1.6126,176.0837,355.0519,5.6811,left
0.0359,0.1673,0.9409,0.0682,0.1828,0.7085,183.8189,353.4468,9.9677,left
-0.0353,0.0886,0.995,0.0007,-0.1251,0.9798,192.9568,352.5266,7.2565,left
0.0281,0.1209,0.9653,0.1006,0.0603,-1.4243,176.3276,355.7839,10.7904,left
0.0082,0.0449,0.9984,-0.2195,-0.1697,-1.9374,150.5496,357.3356,7.5672,left
0.0822,0.0136,0.9823,0.1595,0.2207,-1.8324,131.2707,2.8765,7.4824,left
-0.0044,0.0279,0.9772,0.0349,-0.2005,-0.8974,119.0049,2.5585,5.8854,left
0.0546,0.0311,0.9992,-0.0014,0.0499,-0.9338,110.2295,3.8685,6.1172,left
0.0138,0.0245,0.9692,-0.1477,0.093,-0.1482,109.4283,4.4467,4.6723,left
-0.0304,0.0437,0.9736,0.374,0.2274,1.481,121.3082,4.3797,7.8808,left
-0.0185,0.0359,1.0062,0.0016,-0.363,2.035,143.0825,359.7705,8.582,left
0.0618,0.0284,0.9468,0.1427,0.235,3.0026,179.6029,355.0692,8.3223,left
0.0369,0.0461,1.0452,-0.013,-0.2048,0.809,191.7387,352.0402,5.7542,left
0.0807,0.0942,0.9633,-0.1181,-0.1065,-0.151,187.3623,349.9091,5.2135,left
0.0715,0.0957,0.975,0.0994,-0.1559,-1.0514,172.4498,350.121,7.8987,left
-0.0017,0.0971,0.995,0.093,0.1553,-1.6741,150.5244,356.8799,11.3246,left
0.0492,0.0942,0.9616,-0.1141,-0.3578,-1.4927,132.5532,357.1849,10.711,left
0.0196,0.0947,1.0096,0.0749,-0.1776,-1.4704,115.3764,0.0771,10.4889,left
0.0681,0.1003,0.9655,-0.0197,-0.1871,-0.9494,104.9508,359.8284,10.3289,left
0.056,0.092,0.9999,0.0026,0.1437,-0.0496,106.2887,1.5079,9.7047,left
0.0032,0.0393,1.0006,-0.1324,-0.0701,0.7375,113.0681,0.8894,8.0346,left
0.0773,0.092,0.9687,0.0893,-0.1529,1.9987,134.7907,356.4935,7.7597,left
0.0669,0.0507,1.0791,0.3434,0.2469,1.6969,157.7357,353.6714,6.7556,left
0.0628,0.1318,0.9185,0.154,0.2234,1.8261,173.8611,350.0345,6.4214,left
0.1426,0.1323,0.9833,-0.2668,-0.5099,0.9801,183.9021,345.8769,3.7911,left
0.1348,0.1088,0.9356,0.1061,0.4036,-0.0068,185.7559,348.5523,5.4042,left
0.0946,0.16,1.0128,-0.0109,0.3627,-2.0889,160.1523,355.155,6.9496,left
-0.0617,0.0219,0.9568,-0.1166,-0.3484,-1.7673,138.3888,355.2688,9.6383,left
-0.0064,0.1068,0.9926,0.0068,-0.0179,-1.5691,119.5408,359.5233,10.4614,left
0.0148,0.0605,0.9831,-0.2479,-0.2876,-1.3336,104.7577,358.5371,7.45,left
0.0058,-0.0135,1.0089,0.0365,-0.0399,-0.2615,100.763,359.5962,7.011,left
-0.0143,0.0066,1.0179,0.2848,0.3517,1.8954,122.2727,359.1416,8.8751,left
0.016,-0.0109,0.9436,0.2139,0.3425,1.8652,147.5805,356.8316,9.7971,left
-0.1338,0.0685,0.9794,-0.1993,-0.3175,1.7519,168.1302,353.6249,7.3042,left
-0.0096,0.0471,0.9672,-0.0588,-0.243,0.9019,180.0489,350.0833,4.4155,left
0.0262,0.0029,0.9918,-0.1584,-0.0044,-0.5737,174.9895,349.8204,3.7447,left
0.0376,0.0034,0.9736,-0.2891,0.1975,-1.9588,150.5908,354.8576,5.1129,left
-0.0373,-0.0391,0.9831,0.206,0.1605,-2.1076,125.3491,359.8983,6.4152,left
0.0543,-0.1168,1.0289,-0.0048,-0.4559,-1.3592,109.3934,0.7567,3.2765,left
0.0153,-0.0897,0.9957,0.0777,-0.0414,-0.6384,102.7609,1.1101,3.8896,left
0.0376,-0.1141,0.9994,0.051,-0.1711,0.1105,103.6511,0.764,3.2051,left
-0.0136,-0.0946,0.9777,-0.1915,-0.0685,1.8362,127.4704,1.9899,1.4436,left
-0.0138,-0.0169,0.9704,0.3253,-0.0835,1.8081,149.9991,1.6862,5.2921,left
0.0398,0.0721,0.9577,0.2425,0.2977,1.4144,169.5922,0.3555,9.4822,left
-0.0121,0.0775,0.9858,0.0815,0.025,1.5039,183.1671,357.7845,9.2039,left
0.0543,0.077,0.9667,-0.1671,-0.0642,0.4823,188.6798,354.2976,6.6353,left
0.0318,0.0396,0.9697,0.0464,0.1056,-1.2584,175.7754,356.2328,7.4959,left
0.0162,0.0427,1.0045,-0.0672,-0.3696,-2.3564,147.1593,358.5916,7.9867,left
-0.0146,-0.001,1.0667,0.2162,-0.0795,-1.6591,126.9164,2.6774,5.7979,left
0.0029,0.0415,0.9419,-0.2578,-0.0495,-1.4514,110.5533,2.9633,2.5525,left
-0.0202,-0.0584,1.0096,-0.1396,-0.019,-0.7486,102.6425,4.7421,359.3708,left
-0.001,-0.0823,1.0177,0.0003,0.1218,2.0846,124.2596,3.6493,2.6737,left
0.1496,0.0452,0.9619,0.036,0.3023,1.6774,148.017,0.6598,4.0204,left
-0.0471,-0.0258,0.9792,0.1518,-0.4668,1.8164,169.9771,354.53,2.0244,left
0.0015,0.0631,0.9811,0.2837,0.35,0.898,183.2131,357.2419,5.6248,left
-0.0504,0.0842,0.9709,-0.1451,-0.1397,0.0846,183.0637,356.4517,4.5328,left
-0.0321,-0.013,1.0104,0.029,0.0964,-1.9044,167.6373,0.0097,3.7969,left
-0.0528,-0.0741,0.9139,0.2397,0.3716,-2.42,138.44,4.7123,6.2401,left
-0.0733,-0.0507,0.9529,-0.091,-0.2331,-1.7236,117.2277,4.2618,2.0904,left
0.0005,0.0197,0.9694,0.0253,-0.3357,-0.9576,106.7309,0.2717,4.4464,left
0.0041,-0.0125,1.0045,-0.0073,-0.0969,-0.4963,104.0856,359.9104,3.8248,left
0.1004,-0.0289,0.9926,0.1344,0.1365,-0.3803,100.1964,1.9125,6.3683,left
-0.0785,0.0223,1.0182,0.1335,0.8741,2.331,125.7549,8.7869,9.8259,left
-0.0624,-0.0538,1.0406,0.27,-0.4252,2.2107,154.9058,2.287,11.9913,left
0.0092,0.0007,0.8934,-0.3473,-0.209,2.0177,180.2937,351.0114,8.6677,left
0.1076,0.0126,0.9879,0.2425,0.2605,0.5629,189.148,352.2179,9.8554,left
0.0407,0.0063,0.9819,0.1933,0.2104,-1.562,176.2946,357.4245,10.9879,left
-0.0963,0.0658,1.0194,0.2376,-0.0618,-1.7828,151.3463,4.7156,10.2513,left
0.008,0.0291,0.975,0.014,-0.2423,-1.6026,129.5855,4.4024,8.847,left
0.0284,0.0269,0.977,-0.015,0.1322,-0.7945,117.4128,5.8285,7.3646,left
0.0019,0.0012,0.9894,-0.1582,-0.1036,-0.6124,111.0383,5.6868,5.0806,left
-0.0111,0.0221,0.9977,0.0856,0.0981,-0.0358,111.1774,8.0516,6.405,left
-0.0289,0.0158,0.919,-0.1334,0.6415,2.5051,141.2357,8.6353,9.58,left
-0.0067,-0.0063,0.9219,-0.4517,0.1079,2.3891,172.2774,3.6629,7.5736,left
-0.0407,-0.0321,0.9992,0.1216,-0.108,1.2003,185.9226,1.4691,7.8902,left
-0.0304,-0.0106,0.9931,-0.0843,-0.218,0.1829,188.625,0.051,5.9419,left
0.0456,0.016,1.0096,0.1748,-0.2791,-1.2239,172.7845,358.5021,8.1798,left
-0.0183,-0.061,0.9931,0.0544,0.2078,-2.1463,150.6595,5.4179,5.1945,left
0.079,0.0403,0.9689,-0.1105,-0.2543,-1.8424,127.9778,1.8875,4.0796,left
0.0187,0.0352,0.9321,-0.1325,0.4231,-0.8934,118.2608,5.0714,1.9081,left
0.0245,-0.0217,0.9994,-0.0543,-0.2024,-0.6204,111.4303,1.1627,359.6796,left
-0.0057,0.007,0.9772,0.0349,-0.0118,0.4703,115.3714,1.2302,0.7982,left
-0.0281,-0.0181,0.9529,0.0837,0.0493,2.6988,149.2388,2.0682,1.0291,left
-0.0118,0.0289,0.9485,-0.1679,0.4717,2.1035,177.6882,4.637,1.2679,left
-0.042,-0.034,0.9699,-0.2452,-0.6651,1.1475,193.0968,359.1514,358.3085,left
0.0524,-0.015,1.0369,0.0645,-0.0253,-0.6332,187.2015,358.6026,358.6863,left
0.0478,0.0034,1.0062,0.0556,-0.4242,-2.1616,159.7008,354.7329,0.571,left
0.0577,0.0481,0.9814,-0.105,0.2353,-1.6765,137.0561,357.7319,1.899,left
0.0555,0.042,0.9702,-0.0562,-0.1154,-1.3955,119.5953,356.1964,1.5365,left
0.0507,0.0575,0.9597,-0.1563,-0.0977,-0.5577,111.6529,354.7488,0.0447,left
-0.0007,-0.0128,1.0243,0.2154,0.4256,2.2574,131.8646,357.676,0.5161,left
0.0007,-0.0593,0.9704,0.0523,0.1189,2.6606,160.2468,358.6264,359.9867,left
0.0504,-0.0362,0.9414,-0.3998,-0.1627,1.8317,182.5395,358.1066,355.088,left
-0.0239,-0.0121,0.9295,-0.124,0.1849,1.4975,197.1742,1.5443,358.464,left
0.024,-0.0195,0.9609,0.3421,0.5899,-1.2364,185.3261,6.8566,0.9136,left
-0.0763,0.1253,0.9758,-0.0815,-0.2394,-1.9468,156.248,4.5996,357.5623,left
0.087,0.0449,0.957,-0.1331,0.0099,-1.8622,132.0436,1.1654,357.7309,left
0.0102,0.0253,1.0445,-0.0201,0.1754,-1.1851,120.3562,3.0485,355.3767,left
0.0194,-0.118,0.9992,0.1393,-0.1062,-0.2303,114.2121,0.8741,353.2876,left
0.0247,-0.0938,0.9858,-0.0681,-0.0057,0.518,115.3518,359.7496,352.3596,left
0.0807,-0.049,0.9397,-0.0284,-0.251,2.5323,147.7618,359.733,353.1612,left
0.1035,0.0051,0.9867,-0.0598,0.253,2.3081,177.2296,4.655,355.2657,left
0.1365,0.0522,0.9275,-0.0482,-0.1929,0.6719,186.4861,0.6275,356.9185,left
0.0497,-0.0328,0.9324,0.3284,-0.0488,-2.244,164.6221,357.9262,0.213,left
0.0335,0.0289,1.0157,-0.1514,-0.32,-2.0354,137.8113,354.767,0.1523,left
0.0766,0.0384,0.9117,-0.186,0.3917,-1.4038,119.8085,358.0377,2.633,left
0.0546,0.0017,0.9541,-0.0995,0.0618,-0.8397,103.9176,359.5579,4.8018,left
0.0138,-0.0938,0.9992,0.1402,0.0612,0.8928,111.6053,359.2025,5.0178,left
0.0577,-0.056,1.0065,0.1347,0.1809,1.6909,133.374,0.1589,4.6881,left
-0.0323,-0.061,0.9602,-0.145,-0.2375,2.74,165.8695,355.651,1.3034,left
-0.0422,0.0058,0.9987,0.0492,-0.0668,1.81,187.5192,356.7726,359.7069,left
0.0868,0.0282,0.9992,-0.0152,0.0792,-0.3494,185.6084,357.1068,359.0532,left
0.0698,0.0002,0.985,0.0987,0.3226,-2.0822,161.2341,359.202,359.9264,left
0.0529,0.1027,0.9777,-0.1298,0.027,-2.325,136.9259,358.4996,1.682,left
0.0468,-0.0538,0.9346,0.1201,0.2551,-1.1918,122.4251,359.7897,1.8875,left
0.0179,0.0549,0.9887,-0.0662,-0.0741,-1.4322,105.6772,359.6537,0.9245,left
0.0141,-0.0333,1.0379,0.1864,0.2206,-0.3351,98.6461,2.1587,0.1465,left
0.0478,-0.035,0.986,0.0175,0.0025,0.036,99.6716,1.7811,0.414,left
0.0293,0.0024,0.9862,-0.1474,0.1231,2.3989,127.9709,3.4251,0.3958,left
-0.0138,0.001,0.9992,0.1852,0.1793,2.6292,154.198,3.2343,3.4892,left
-0.0415,-0.0181,0.9414,-0.2222,0.1799,2.6487,178.7681,3.7937,4.3085,left
0.0589,-0.0181,0.9955,0.0768,0.0654,0.5806,189.9761,2.622,4.4245,left
-0.0336,-0.0019,0.9633,0.1128,0.0932,-1.215,177.335,4.9789,4.9593,left
-0.0365,0.0512,0.9853,0.2041,-0.2364,-1.8265,152.051,5.2159,6.028,left
0.0313,0.0294,0.9753,0.0139,-0.1756,-1.9841,126.2683,4.4316,4.6276,left
-0.0442,0.0131,1.0603,0.1861,-0.2822,-1.1686,109.9014,4.4327,2.102,left
-0.0254,-0.0089,1.015,-0.0704,-0.0919,-0.6985,102.0555,5.4292,0.0942,left
0.0034,-0.1016,0.9816,-0.0161,-0.1218,0.3924,104.4561,3.8335,359.5939,left
-0.0012,0.0316,0.9446,-0.0656,0.1546,2.5136,138.3163,6.2232,1.2795,left
-0.0812,0.0614,0.9655,0.0263,0.4197,2.3997,169.0573,9.0119,6.6842,left
0.0126,0.1496,1.0567,0.1339,0.0276,1.2662,185.5014,5.461,10.2352,left
0.0793,0.1187,1.0104,-0.014,-0.1242,-0.2527,183.9646,3.8363,9.6609,left
0.0715,0.1073,0.9641,-0.2137,-0.0977,-1.3327,167.9974,2.9885,7.4099,left
0.033,0.0794,0.9811,-0.0082,0.0523,-1.6339,146.3261,4.8748,5.9084,left
0.0308,0.0792,0.9806,0.0657,-0.1826,-1.4503,127.7375,4.1593,4.3584,left
0.0393,0.0265,0.9962,-0.1609,0.0074,-0.9161,115.8679,3.7548,359.9953,left
-0.0002,0,0.9894,-0.1099,0.1445,-0.3822,109.8349,4.6252,357.1535,left
-0.016,-0.0227,0.9884,-0.0222,0.0529,0.936,117.9031,4.6838,357.9166,left
-0.002,0.0202,0.9848,0.2698,0.1497,2.5927,151.8667,5.7091,3.332,left
-0.0847,-0.0381,1.0213,-0.0821,-0.3307,1.7106,174.2476,5.6168,0.6109,left
0.0339,0.0403,0.9979,0.1345,-0.079,0.9806,188.5248,3.3548,4.0945,left
0.0444,0.0515,0.9838,0.1885,-0.0778,-1.4925,172.0689,3.1186,5.1928,left
0.0325,0.0838,0.9899,-0.0344,-0.0467,-1.8153,148.5631,3.8951,3.8004,left
-0.1042,0.0476,1.042,0.3263,-0.0369,-1.4057,129.2724,6.8428,0.8167,left
0.009,0.1146,0.9119,-0.076,-0.1685,-1.406,114.7535,4.1839,2.0126,left
0.0419,-0.0164,0.9923,-0.1087,-0.2501,-0.5059,108.4354,0.8821,359.3846,left
0.0422,-0.0528,1.0055,0.2466,0.3006,0.9394,118.1752,2.7287,1.5943,left
-0.0022,0.0015,0.949,0.0202,0.1708,1.8771,142.9755,2.3559,3.0318,left
-0.057,-0.015,0.9377,-0.1713,-0.4324,2.5994,172.0524,356.9792,2.2712,left
0.0839,-0.0251,0.9256,0.2533,0.1308,0.6617,184.5617,353.2741,4.846,left
0.0499,-0.0234,0.9538,-0.0784,-0.0027,-1.1498,170.9226,353.7243,6.1623,left
0.0439,0.0148,0.9514,0.1284,0.2976,-1.8501,150.648,359.5229,8.5384,left
-0.0123,0.0782,0.92,-0.1862,-0.1261,-1.2371,132.3644,359.2956,7.2019,left
0.0204,-0.0253,1.0323,-0.1813,-0.2687,-1.1324,115.477,358.1599,3.5006,left
0.0861,-0.0586,0.9161,-0.0124,0.6626,-0.7866,106.2138,6.1761,1.0589,left
0.0211,-0.1375,0.9994,0.0731,-0.13,0.0985,106.0435,4.1637,359.9362,left
-0.0146,-0.0644,0.9984,0.1687,0.3999,2.14,132.2128,8.4414,2.7715,left
-0.0452,-0.0014,0.9699,0.4222,0.0966,2.1202,160.0115,5.5951,11.103,left
0.0187,0.0709,0.9677,-0.1939,0.1418,1.7198,182.9945,1.9781,11.2352,left
0.0533,0.0588,1.0494,0.0816,-0.1624,-0.6406,178.9253,1.4264,10.036,left
0.0393,0.0947,1.0442,0.0022,-0.211,-1.3541,159.2126,4.719,6.1104,left
0.0672,0.0663,0.9819,-0.2198,-0.0772,-1.7222,139.3946,4.6383,1.1842,left
0.0589,0.041,0.9648,-0.1334,-0.1138,-0.8046,127.5671,2.9992,0.2071,left
0.0609,0.0165,0.977,-0.1676,0.289,-1.3621,113.2478,5.5287,356.8749,left
0.0519,0.0095,0.9463,-0.0674,-0.1951,-0.9067,103.4962,0.7443,353.5703,left
0.0504,-0.0306,0.9416,-0.0176,0.5074,2.0392,124.1394,2.8227,357.3642,left
-0.0212,-0.0608,0.9931,0.286,0.1051,2.2366,155.435,7.2871,3.6374,left
0.0584,0.0762,0.9967,0.0584,-0.2149,1.2931,169.0595,3.3354,6.0231,left
0.1256,0.0483,0.9945,0.1491,0.0331,1.0044,180.0929,3.4915,6.0827,left
0.0706,0.051,0.9621,0.0764,0.0798,0.4412,185.0008,1.4879,6.4434,left
0.0878,0.0578,0.9775,-0.1141,-0.0253,-0.4855,180.9157,1.6306,5.4188,left
0.0553,0.0641,1.0245,-0.2962,-0.3292,-1.4567,166.6219,1.3878,1.7853,left
0.137,0.0439,0.9351,-0.3802,0.4063,-2.2087,145.141,4.0102,0.4854,left
0.0439,0.0148,0.9685,-0.0598,-0.138,-1.4131,125.5958,0.2005,357.8517,left
-0.0304,-0.0429,0.9877,-0.1233,0.1369,-0.8178,114.0497,2.2172,354.8402,left
0.0628,0.0158,0.9806,-0.2397,-0.2006,-0.9247,108.0024,0.4956,353.5025,left
0.0487,-0.0702,1.0084,-0.0212,0.0433,-0.1638,107.5331,0.7224,353.1714,left
0.024,-0.0709,0.9855,0.053,-0.0401,1.1465,117.3519,1.74,354.5773,left
0.0165,-0.0072,0.9641,0.1718,0.0705,2.3169,140.403,3.2816,358.2198,left
0.0225,0.0022,1.0048,0.3483,0.0369,2.1508,160.7367,3.582,1.574,left
0.0007,0.0233,0.9897,0.0808,0.6099,1.8032,177.1145,6.4526,5.1918,left
-0.06,0.0869,0.9494,-0.0765,-0.303,1.2354,186.8984,3.8056,5.4786,left
0.0318,0.0947,1.0128,-0.0799,0.1313,0.3738,190.2057,3.8438,5.3106,left
-0.0094,0.05,0.9889,0.0157,-0.0605,-1.3544,178.0121,4.5781,5.1277,left
-0.0496,0.0889,0.9733,-0.0185,0.0158,-1.9139,153.3339,5.723,1.5704,left
-0.0165,0.0517,1.0023,-0.0429,-0.3766,-1.7087,130.7592,2.7588,358.3813,left
0.0659,0.0724,0.9892,-0.159,-0.1748,-1.2618,116.5944,0.2009,358.1171,left
-0.0311,-0.0241,0.9302,-0.181,0.0271,-0.3721,115.0038,359.4382,356.9378,left
-0.0141,-0.083,0.9943,0.097,0.1404,1.3747,126.0335,359.7031,357.415,left
-0.0402,-0.0731,1.0479,0.4219,-0.1299,1.9067,147.763,359.6877,358.0546,left
0.0344,0.007,0.9075,-0.2561,0.4395,2.3658,176.5732,4.1779,359.9143,left
-0.0321,0.0578,1.0479,-0.0328,-0.3608,1.4171,189.1483,3.9657,0.6064,left
0.0555,0.0296,0.9977,0.2307,0.0632,0.0757,192.1553,3.7934,2.5503,left
0.0187,0.0539,0.9977,0.0472,0.0106,-0.9203,182.4403,2.8677,2.1219,left
0.0218,0.0738,0.9619,-0.1016,-0.0584,-2.1546,155.4224,2.6646,359.2314,left
-0.0022,0.0541,1.0245,0.1046,-0.1913,-1.6335,134.6147,0.0394,359.3411,left
0.0153,0.0403,0.917,0.0084,-0.0504,-1.3003,123.6625,356.4191,0.8228,left
0.0041,-0.0075,1.0301,0.0163,-0.0123,-0.5618,117.0306,357.0918,359.9107,left
0.0109,0.0607,0.9728,-0.1584,-0.0355,-0.5648,109.6322,356.106,359.0701,left
-0.0054,-0.0642,0.9809,0.0579,0.0626,0.8921,119.0963,358.3759,358.9241,left
-0.0731,-0.0118,0.9943,0.3682,0.0959,2.0796,145.545,0.3148,359.8094,left
0.0032,0.1338,0.9753,0.1367,0.0244,2.364,174.5498,358.0637,3.7543,left
0.0424,0.1459,0.946,-0.2057,-0.0346,0.999,186.7956,356.1815,2.5078,left
0.049,0.1139,0.9894,-0.0151,0.04,-0.8202,180.0059,356.6037,3.0187,left
-0.0086,0.0988,0.9865,-0.101,-0.033,-1.6479,159.7433,357.0868,1.2627,left
-0.0188,0.0286,0.9826,0.0398,0.0549,-1.5523,139.5264,358.2587,3.0885,left
-0.0146,-0.021,0.9731,-0.1828,0.0641,-1.0254,125.1889,359.7837,2.4371,left
-0.021,-0.0482,1.0016,-0.1407,0.0387,-0.7304,115.5944,1.8555,359.0702,left
-0.036,-0.02,0.9321,-0.0143,-0.1253,0.0477,118.5543,359.8271,359.3787,left
-0.0889,-0.1165,1.0014,0.5102,-0.4374,2.3344,142.3718,357.3783,1.9161,left
-0.0012,0.0369,1.0255,0.2576,-0.0089,1.5837,164.6046,357.6027,3.7002,left
0.0298,0.0988,0.9385,0.2233,0.1753,1.1665,179.1537,356.6464,5.9774,left
0.0121,0.1437,0.9124,-0.1548,0.083,1.7932,198.7366,354.7246,3.5855,left
0.0936,0.1127,0.9767,-0.1438,-0.0199,-0.7791,192.5354,353.2737,3.0041,left
-0.0624,0.0546,0.9999,-0.0876,0.0256,-2.4804,159.8275,358.8243,2.5099,left
-0.0136,0.042,0.9804,-0.1429,0.0684,-1.6069,135.9556,359.5554,0.4379,left
-0.0244,-0.0702,1.0035,-0.0622,-0.0364,-0.7941,125.3981,0.8025,358.1203,left
0.0213,-0.0222,0.9904,-0.1685,-0.2047,-0.8411,115.4802,357.5835,357.1849,left
-0.0146,-0.0357,1.0221,0.0404,0.0418,-0.3582,112.4743,358.823,356.4816,left
-0.018,-0.0282,1.0157,0.0166,0.1154,1.5562,126.6456,0.3022,357.5712,left
0.0082,-0.0183,0.9979,0.2298,-0.0178,1.7108,149.4147,359.9256,359.1233,left
-0.0052,0.1204,0.9989,0.205,-0.1628,1.905,169.3641,357.8985,1.6271,left
0.0223,0.1054,1.0213,-0.0595,0.0415,1.1512,184.8421,1.4711,0.8714,left
0.0327,0.0719,0.9987,0.0121,0.0236,-0.3238,183.4563,0.5669,0.9196,left
-0.0079,0.0884,0.9299,-0.2182,0.136,-1.6228,164.5911,359.3649,0.1073,left
0.1113,0.1418,0.9451,-0.3731,-0.0057,-1.7288,142.0228,357.8873,358.4171,left
0.0078,0.0092,1.0099,-0.2909,0.0463,-1.4157,123.8271,357.0943,354.7007,left
0.0749,0.0226,0.9221,0.064,-0.0628,-1.1912,112.5657,353.3336,358.8378,left
0.0592,0.0243,0.9979,-0.1299,-0.009,-0.2419,108.3462,352.7071,0.031,left
0.0647,-0.0386,0.9992,0.0414,0.3612,1.606,122.7511,355.4499,359.5719,left
0.0148,0.0371,0.9697,0.0292,0.074,1.6542,147.3554,356.4217,357.5535,left
0.0162,0.0291,1.0016,0.046,-0.1068,1.3711,164,356.3148,356.6426,left
0.0068,0.0716,0.9928,-0.0145,0.0618,1.7739,183.1852,359.6537,355.9913,left
0.1804,0.0743,0.9955,0.0145,0.1522,0.0088,189.3215,0.8368,357.3143,left
0.0432,0.0573,1.043,0.1895,0.001,-1.1469,174.7993,2.449,359.074,left
0.0056,0.1061,0.9989,0.1663,-0.3722,-1.825,149.5499,0.2352,1.3087,left
-0.0267,0.0464,0.9992,-0.1412,0.056,-1.0125,134.4932,1.5058,359.9561,left
-0.0188,0.0185,0.9341,0.0292,-0.0866,-0.9172,124.4042,0.7584,0.3591,left
-0.0304,-0.0217,0.9989,-0.0854,-0.0781,-0.7984,114.568,359.6968,358.2719,left
-0.0926,-0.0441,0.9992,0.0322,0.1889,-0.4572,109.4657,1.8398,357.9898,left
-0.0089,-0.0683,1.0062,-0.0383,-0.1407,-0.3177,104.2165,359.514,355.809,left
-0.0602,-0.0984,0.9726,0.0157,0.1055,1.8686,122.2819,0.4356,356.2171,left
-0.0321,0.0347,1.0547,0.1495,0.2469,1.2785,143.7114,3.8498,0.9453,left
-0.0395,-0.0174,0.978,0.1184,-0.046,1.2779,159.8875,4.4247,1.9427,left
-0.0889,0.0806,0.9621,0.2329,-0.1724,1.8256,178.555,2.2314,5.847,left
-0.041,0.0668,1.0574,-0.1596,-0.1935,1.08,192.8151,359.3609,4.6724,left
0.0136,0.0893,1.0174,0.0964,0.1507,-1.0119,184.1865,1.9693,5.6459,left
-0.0153,0.1054,0.9675,-0.297,-0.0307,-1.4218,164.9498,0.6988,1.3113,left
-0.0197,0.0243,0.9921,0.0093,-0.1718,-1.839,139.9384,359.8189,0.5615,left
-0.0548,-0.0157,1.0162,0.0072,-0.0249,-1.2761,124.1977,1.5974,0.088,left
-0.0128,0.0318,0.9312,-0.0371,0.0142,-1.0901,113.3228,1.4262,2.2927,left
-0.0207,0.0015,0.9745,-0.0047,-0.2396,-0.6078,106.8438,358.6345,1.3758,left
0.0051,0.0039,1.0048,-0.1684,0.2255,1.4841,121.7872,358.1113,2.2976,left
-0.0351,0.0369,0.9906,0.0414,-0.0839,2.7223,155.0507,359.1275,0.737,left
-0.0252,0.0821,0.9338,0.1685,-0.1749,2.4419,182.9743,356.414,3.8617,left
0.0642,0.0442,0.9994,-0.377,-0.0197,1.3155,196.4341,355.9645,1.5545,left
0.0162,0.0367,0.9599,0.0316,0.093,-1.0125,185.0467,357.6409,2.6425,left
-0.0299,0.0634,0.9999,0.0646,-0.0035,-2.1387,157.875,359.9967,2.7046,left
-0.0407,0.0151,0.9936,0.115,0.0545,-1.6573,135.312,2.053,3.1471,left
-0.0491,0.0121,0.9553,-0.1186,-0.1486,-0.8849,122.7478,359.8851,1.9515,left
0.0429,-0.0179,0.9928,-0.1522,-0.0918,-0.8415,112.1246,358.9496,0.7506,left
0.0192,-0.0801,1.0308,-0.0799,-0.006,1.084,120.8198,358.7822,358.2284,left
0.0034,0.0554,0.9794,0.2564,0.0041,2.3402,150.1588,0.9794,1.1064,left
-0.0007,0.0534,0.9667,0.1749,-0.2021,2.0534,173.9145,357.5723,3.6315,left
0.0344,0.0291,0.9755,-0.3144,-0.5154,1.9453,196.6046,351.918,358.14,left
0.1268,0.0155,0.9765,0.2216,0.0206,0.2843,199.2143,353.4189,0.8259,left
0.1188,0.0544,0.9987,0.1104,0.2136,-1.4114,185.394,355.8167,3.5822,left
0.0027,0.0932,1.0043,0.1184,0.1837,-2.1316,156.3454,1.4487,4.701,left
-0.0183,0.085,0.9972,-0.0185,-0.2906,-1.8039,132.3195,359.9626,4.1019,left
0.0388,0.111,0.8858,-0.3102,-0.1184,-1.478,113.5925,0.7674,2.639,left
0.0044,0.0699,0.9702,-0.0246,0.0059,-1.0195,104.5796,0.9644,2.5681,left
-0.0015,-0.0345,1.0345,-0.0261,0.1846,1.0476,115.2352,2.9538,0.5159,left
-0.1093,0.0182,0.9799,0.0949,0.1785,2.1362,141.2581,4.3876,2.0534,left
-0.0721,0.0619,0.9521,0.1822,-0.0515,2.1096,167.0707,2.9175,6.5722,left
-0.0745,0.0486,0.985,0.049,0.1629,1.4499,180.7384,3.7644,8.2425,left
-0.0272,0.0726,0.9399,-0.1385,-0.0842,1.0122,192.2661,359.1326,8.7679,left
0.0342,0.083,0.9955,0.0285,0.0284,-0.0531,193.4484,1.2041,8.623,left
0.0158,0.0748,0.9731,0.0126,-0.1882,-1.7717,171.4587,1.8648,7.4179,left
-0.0052,0.0711,0.9472,-0.1035,0.2602,-1.9086,147.8434,6.9177,4.2987,left
-0.0346,0.0556,0.9897,-0.0146,-0.3351,-1.5317,127.9529,3.4293,1.3188,left
0.0342,0.0714,0.9794,-0.0885,-0.2261,-1.5057,109.85,0.3989,0.8977,left
0.0402,0.109,0.9633,-0.0063,0.0287,-0.4526,106.401,1.0895,2.0223,left
-0.0074,0.0461,0.9667,0.026,0.6991,2.2194,130.9961,7.9435,1.3175,left
-0.0745,0.0573,0.9626,-0.105,0.007,1.9457,157.4363,6.2371,4.4474,left
-0.0252,0.1051,0.9697,0.2579,0.24,1.3727,168.9461,6.3338,7.4126,left
-0.0375,0.1117,0.994,-0.2174,-0.1011,1.7453,189.064,4.3428,8.2286,left
0.138,0.1615,0.9377,0.3641,0.4432,0.2768,196.3249,5.8802,11.0415,left
0.0475,0.1032,1.016,-0.1588,-0.2545,-1.1056,183.524,4.4828,7.2564,left
-0.0074,0.1061,0.976,0.1054,0.4813,-1.8463,158.111,9.5614,5.7765,left
-0.0891,0.1083,0.9563,0.0376,-0.0981,-1.4321,137.3694,8.7614,3.3752,left
0.0262,0.0561,0.984,-0.0949,-0.274,-1.4779,121.138,5.4625,1.9632,left
0.0007,0.0158,1.0274,-0.0125,-0.2151,-1.0759,105.996,2.756,359.613,left
0,0.0177,1.0545,-0.1832,-0.186,-0.7125,98.8351,359.5111,356.1475,left
-0.0173,-0.0068,0.9853,-0.0018,0.2965,1.7569,115.8966,5.3789,356.9494,left
-0.0471,0.0539,0.9665,0.1305,0.4172,1.9451,142.5662,9.7558,1.9827,left
-0.0432,0.009,0.984,-0.0436,-0.3504,1.6085,164.6178,4.4661,1.003,left
-0.002,0.0517,0.9748,0.0263,0.1762,1.2298,179.9564,4.6771,3.8158,left
-0.0234,0.0636,1.0113,-0.0497,-0.0871,0.6971,187.7116,6.4821,4.6842,left
0.0315,0.0651,1.0006,0.0437,0.0629,-1.2452,178.0361,6.5773,3.4943,left
-0.0425,0.0092,0.9962,0.0123,0.2352,-2.5362,147.6294,11.3709,357.3686,left
-0.0249,0.0398,0.9341,-0.0115,-0.2572,-1.6474,126.9719,5.2386,354.5865,left
0.0298,0.01,0.9887,-0.1676,-0.1396,-1.473,110.5028,2.0021,351.8544,left
0.0698,-0.0022,0.9987,-0.1822,-0.0349,0.0106,106.8835,359.3798,350.4163,left
-0.0508,-0.0275,1.0001,-0.0298,0.3381,2.4382,133.3106,9.0537,350.3776,left
0.0005,0.0823,0.9694,-0.0866,-0.0049,1.3255,155.2455,11.6782,354.8946,left
-0.0227,0.1265,0.9714,0.2216,-0.0614,2.1841,176.9287,9.8757,3.4354,left
-0.0027,-0.0521,1.035,-0.0109,-0.1045,0.8863,192.4928,8.9381,2.9655,left
0.0417,0.035,0.9882,0.0716,0.2104,-0.4292,190.1628,10.2024,3.9892,left
-0.0158,0.0352,1.0167,0.2982,0.0775,-2.0468,164.111,12.3829,1.6412,left
-0.0538,0.0609,0.9368,-0.4201,-0.1262,-1.3299,145.0621,8.9013,356.0848,left
-0.0425,0.0027,0.9741,0.3663,-0.1329,-1.5813,125.4346,6.7656,356.3446,left
0.0461,0.0328,0.9792,0.0181,-0.3247,-1.3605,107.5608,0.4844,356.6233,left
0.0822,0.0918,0.9833,-0.0683,-0.0654,-0.5789,99.0644,358.3878,357.0174,left
0.0679,0.0767,0.9828,-0.2311,0.5528,1.5649,117.6041,2.8671,356.4328,left
0.0107,0.0134,1.0001,-0.1981,-0.0639,2.7125,153.0764,6.2161,0.0687,left
-0.0202,0.0452,1.0162,0.0139,0.0488,1.9003,177.6588,5.921,2.473,left
-0.061,0.0138,0.987,-0.1404,0.2104,1.5607,197.3482,8.4501,2.224,left
-0.022,0.0391,0.9565,-0.0459,0.0342,-0.2643,195.7245,8.9453,2.7247,left
0.0393,0.0442,0.9631,-0.0492,-0.4337,-2.2502,168.6619,2.7375,0.2679,left
-0.0096,-0.0082,1.0023,-0.0746,0.2856,-2.2481,140.3498,5.0835,356.649,left
0.0097,0.0299,0.985,0.0183,-0.0042,-1.6818,121.9005,3.4945,354.6289,left
0.0276,0.0342,1.0116,-0.2502,-0.2571,-1.2142,105.1229,359.1162,351.0868,left
0.0883,-0.0555,0.9916,-0.1412,0.0233,0.1734,105.1391,357.3511,349.3693,left
-0.0111,0.0515,0.9689,0.0852,0.5853,2.0094,129.3021,10.9646,352.2019,left
-0.0662,-0.0227,0.9597,0.3014,-0.3402,2.8588,163.8839,8.9915,0.9648,left
0.0107,0.0799,0.9214,-0.0196,0.3183,1.9999,190.2668,9.2434,7.5352,left
0.0621,0.1403,0.9777,-0.0065,-0.0769,0.5763,195.8049,5.5501,8.7575,left
-0.0104,0.0391,0.9996,0.2287,0.2044,-1.3198,182.0801,8.8931,7.7925,left
-0.1195,0.0971,0.9728,-0.0095,-0.0604,-2.4902,151.4192,11.6635,2.8178,left
-0.0898,-0.0116,0.9112,-0.1839,-0.1634,-1.5993,129.2726,6.1197,358.4069,left
-0.0259,-0.0282,0.957,-0.2368,0.0471,-1.6198,108.3795,4.3404,355.7139,left
0.055,-0.1016,0.9733,-0.0593,-0.1765,-0.1063,103.4761,1.2503,353.5401,left
-0.0723,-0.0687,1.0174,0.1328,0.1311,2.3872,129.3385,7.7332,356.143,left
-0.0933,-0.0188,0.9419,0.1621,-0.4013,3.1734,167.64,0.8642,4.3096,left
0.0926,0.007,0.9687,-0.1283,0.2255,0.5351,185.9345,357.7416,3.6462,left
0.0439,0.111,0.9916,0.2119,0.296,-1.2313,169.3784,0.7045,4.1124,left
0.0272,0.0435,0.8515,0.0748,-0.0314,-2.5483,146.7369,0.3054,6.9632,left
-0.1296,-0.0714,1.0001,-0.1222,-0.0901,-2.3931,123.0996,3.1208,3.3109,left
-0.0005,-0.0815,0.9224,-0.1204,-0.3985,-1.3724,106.8877,0.3208,0.5819,left
0.0727,-0.006,0.9992,-0.033,0.2319,-0.6525,98.6628,1.4412,0.4681,left
0.0177,-0.0876,1.0277,0.1328,0.1134,1.6862,116.1727,2.5331,0.082,left
-0.0392,0.0405,1.0238,0.237,0.2664,1.9052,138.6684,4.9666,5.6349,left
0.0764,0.0015,0.9992,-0.1265,-0.1621,2.3316,169.6393,0.1444,4.0481,left
0.0788,0.0753,0.9933,0.0455,-0.0027,0.4077,176.0202,359.3637,4.242,left
-0.0148,0.0704,0.9833,-0.2056,-0.0039,-1.2636,161.6142,1.4032,4.1065,left
-0.0104,0.001,0.9926,0.0165,-0.0274,-1.7474,139.9525,2.9093,0.8986,left
0.0669,0.0269,0.9789,0.2733,0.2471,-2.1726,113.3889,6.9879,1.395,left
0.0177,-0.0444,0.9858,0.1151,-0.4199,-0.9857,102.7575,2.5036,358.1309,left
0.0953,-0.0391,0.9353,-0.1274,0.124,-0.318,101.4832,2.22,356.7116,left
0.0722,-0.096,0.9992,0.1047,0.1433,1.5528,116.9395,3.5599,357.2612,left
-0.0775,-0.0432,0.9368,0.2348,0.2758,2.6878,150.0582,6.4995,3.0374,left
-0.0743,0.0092,0.9419,-0.0309,-0.1918,2.5833,180.605,2.3059,6.9564,left
0.0068,0.0857,1.0328,0.0073,0.2963,0.7776,191.1375,3.7806,9.2487,left
0.0177,0.0549,0.9148,0.211,0.2016,-0.0104,192.0245,2.4667,10.2395,left
0.0082,0.0641,0.9977,-0.1415,0.2065,-1.6543,176.0581,7.9896,8.782,left
-0.0538,0.0702,0.9821,0.0223,-0.134,-1.9637,149.5852,8.7789,4.003,left
-0.041,-0.028,0.9926,-0.0055,-0.0772,-1.6708,128.2456,9.2194,0.3334,left
-0.0052,-0.0137,0.9918,0.2037,-0.178,-1.6598,108.8156,5.8377,359.3072,left
0.0402,-0.0171,0.9682,0.1004,-0.2159,-0.4216,104.3963,1.9598,359.0796,left
-0.016,-0.0198,1.0179,0.0268,0.475,1.3438,117.8001,6.1335,1.1739,left
0.0175,0.0617,0.9677,0.0223,-0.1237,1.9788,144.6735,2.5341,2.691,left
-0.0624,0.0728,0.9624,0.2073,0.1127,2.6392,173.0788,1.8633,6.357,left
0.0078,0.0687,0.9675,-0.1066,-0.0928,0.9844,191.9793,358.3644,4.8475,left
0.0727,0.1095,0.9672,-0.0917,0.1323,-1.0495,178.8193,357.974,3.1027,left
0.0092,0.0801,0.9144,-0.1641,-0.1102,-1.8943,152.8181,357.4086,3.0277,left
-0.0565,0.0658,1.0447,0.2999,-0.2208,-1.5101,131.6892,358.6813,6.106,left
0.0267,0.1078,1.0033,0.2318,-0.2568,-1.4759,114.5009,357.0512,9.2183,left
0.0407,0.0524,0.9538,-0.019,-0.1719,-1.0171,100.7092,356.2634,9.607,left
0.048,0.0588,0.9614,-0.1521,0.146,0.6053,102.702,356.5416,9.4202,left
-0.0541,0.0367,0.9594,-0.0724,0.4283,1.6487,126.0825,359.7486,6.0785,left
-0.0926,0.0697,0.9526,0.3249,0.0703,2.2165,152.8382,357.0417,8.064,left
-0.0649,0.0597,0.977,0.0091,0.1802,2.0769,181.1021,355.7127,5.6911,left
0.0446,0.1901,0.9926,-0.2493,-0.207,0.4422,187.0342,354.1422,1.5705,left
0.0259,0.0631,0.9324,0.1004,0.1998,-2.0907,163.9602,355.4575,4.8039,left
-0.1266,0.1539,1.0296,0.2113,-0.3329,-1.8818,137.6597,358.5797,5.4951,left
-0.0272,0.0872,0.9178,-0.095,0.0443,-1.5431,118.9104,0.8776,6.1539,left
-0.0311,0.0284,0.9987,0.2309,-0.1579,-1.3369,107.9605,2.1336,5.4231,left
0.0007,-0.0092,1.0004,0.0949,-0.0015,-0.7203,98.3721,2.0545,4.95,left
-0.0089,0.0185,1.0067,0.127,0.0263,0.9511,107.1504,0.9975,5.3958,left
-0.0842,0.1389,0.9699,-0.0434,0.3592,2.9092,144.8417,3.408,6.6848,left
-0.1091,0.0779,0.9775,-0.019,0.7523,2.01,172.8745,6.0307,8.4144,left
-0.0849,0.052,0.9918,-0.4698,-0.1319,1.2895,190.0483,4.2548,5.6908,left
0.0308,0.066,1.0074,-0.0257,0.2694,-0.7823,184.4494,6.184,3.7131,left
0.0184,0.1046,0.9014,0.003,-0.4783,-2.6827,148.2142,1.8613,5.3626,left
0.0019,0.0833,1.0255,-0.4139,0.282,-1.6592,124.2269,6.3239,358.2933,left
0.0883,0.0245,0.9295,-0.3608,-0.5039,-1.3989,105.2498,355.7215,356.8427,left
0.0604,0.0517,0.9967,-0.1393,0.074,-0.9393,93.3047,354.7931,358.04,left
0.0541,-0.0162,0.9792,0.0284,0.0764,0.7235,99.5119,355.4642,358.3789,left
0.0419,0.1853,1.0157,-0.0746,0.2655,1.5964,122.6448,359.9445,0.163,left
0.015,-0.0157,0.9597,0.0103,0.1329,1.9058,146.4943,1.7555,359.9445,left
0.0131,0.0437,0.9716,0.1609,-0.0925,2.236,170.2259,359.8309,1.9793,left
0.1013,0.0561,0.9833,-0.0471,0.1326,1.4834,189.9646,357.354,1.7698,left
0.1123,0.1146,0.9855,0.021,-0.2092,0.477,196.9915,354.4375,1.3279,left
0.0449,0.0898,0.9884,0.0216,0.3262,-2.299,172.8136,357.9408,3.8904,left
-0.0963,0.0097,1.0452,-0.0987,-0.3503,-2.4139,148.8607,358.2761,0.8798,left
0.0827,0.0825,0.9136,0.1276,-0.025,-2.307,128.0413,356.939,3.4184,left
0.0133,0.0369,1.004,-0.1069,0.2047,-1.6182,115.2468,0.8405,1.0493,left
0.0165,0.0182,0.9531,0.0048,-0.2797,-0.917,106.6301,357.4726,1.9512,left
0.0097,0.0024,0.9724,-0.2719,0.4444,0.0693,100.562,0.697,359.1497,left
-0.0289,0.0197,0.9631,-0.1775,0.1094,1.9281,121.4125,1.3716,359.128,left
-0.0032,0.0702,0.9195,0.0094,0.5562,2.5149,147.8404,3.7919,1.843,left
-0.0699,0.0505,0.9504,0.2941,0.205,2.3075,175.9144,3.5444,7.4493,left
-0.1316,0.0808,0.9845,-0.2261,-0.4089,1.5974,193.6899,358.3552,5.7918,left
0.0206,0.049,1.0506,-0.0471,-0.1521,0.1236,198.1684,358.9743,5.369,left
-0.0267,0.0352,0.9431,0.0345,-0.1102,-1.7499,179.4421,359.783,6.1474,left
0.0116,0.0146,0.9953,-0.0776,-0.3307,-2.4154,148.823,359.0146,4.5942,left
0.0056,0.1432,0.9192,-0.5654,0.847,-1.7878,125.2228,5.7839,1.1981,left
-0.0037,-0.0333,0.966,-0.1011,-0.3384,-1.4939,106.2115,1.0105,0.8,left
-0.0064,-0.0724,0.9733,0.0937,0.0007,0.7938,113.257,1.1903,0.0354,left
-0.0607,-0.0215,0.9777,0.441,0.3036,3.0665,149.7911,0.7511,6.2742,left
-0.0518,0.0976,0.9728,-0.0175,0.1638,1.97,176.3582,359.5635,6.8981,left
-0.0484,0.0566,0.985,-0.0932,0.0055,1.2782,192.4639,355.9962,5.0085,left
0.0116,0.1073,0.9682,0.0582,0.1317,-0.1208,190.621,357.001,6.2956,left
-0.0212,0.0639,0.9955,-0.0407,0.0166,-1.5649,178.2818,358.7689,6.0244,left
0.017,-0.0412,0.9733,-0.3846,-0.4749,-2.8203,152.2087,357.4087,3.851,left
0.0621,0.0044,1.0031,0.2836,-0.2235,-2.1697,131.9657,357.9316,5.6945,left
0.0305,-0.0034,0.9519,-0.0978,0.2515,-1.5542,113.6438,0.7597,4.402,left
0.0189,-0.0024,1.0055,-0.1146,-0.181,-0.984,102.5769,0.2252,1.5962,left
0.047,-0.0552,1.0204,0.0732,-0.1676,0.8556,109.4428,359.4546,0.3142,left
0.0572,-0.0043,0.967,0.1941,0.417,2.2985,140.2277,2.0343,5.2038,left
0.0082,0.0238,0.9368,0.2293,-0.2137,2.4323,167.3611,357.6968,5.1144,left
-0.0207,-0.0121,0.9694,0.0255,-0.0879,1.1983,187.1121,354.866,4.9493,left
0.0752,0.0405,1.016,-0.0844,-0.0613,-1.9272,165.9207,358.4209,4.7571,left
0.0584,-0.0099,0.9477,-0.0215,0.0731,-2.4094,135.9626,359.2344,4.6565,left
-0.0407,-0.0075,0.9585,0.2326,-0.4498,-1.8591,110.145,359.9028,8.7573,left
0.0958,-0.0444,1.0187,0.0711,0.1675,-1.2015,100.0551,1.8113,7.3879,left
0.0599,0.0415,0.9845,-0.114,-0.3118,-0.4119,94.5424,358.8969,5.5422,left
0.0722,-0.0367,0.9477,-0.1956,0.2292,1.9106,118.6236,358.7578,2.4726,left
-0.0064,-0.0656,0.9648,0.1288,0.1097,2.3663,146.229,358.5463,3.4346,left
0.0439,0.0342,0.9687,-0.0429,-0.0378,1.9924,170.8245,356.0311,3.4248,left
0.1607,0.0432,1.006,-0.1589,-0.3664,0.7545,184.669,352.4531,359.0104,left
0.0095,0,1.0006,0.1514,0.4323,-1.5032,171.1355,356.6826,1.2846,left
-0.1794,-0.0116,1.0157,0.3218,-0.2754,-1.9699,145.458,358.571,4.3226,left
0.0456,-0.015,0.987,-0.1134,-0.3692,-1.6446,125.5569,355.3148,2.4218,left
0.1283,0.0095,0.9646,0.0265,-0.0812,-1.4883,110.9031,353.5799,3.0553,left
0.0895,-0.0186,0.9399,-0.0456,0.0303,-0.221,107.0427,353.9673,3.3169,left
0.0594,-0.0212,0.9965,-0.1754,0.0215,1.3688,116.2159,353.6717,0.7906,left
0.0463,-0.056,1.0033,0.1596,0.3187,2.6503,149.6055,358.7171,0.9562,left
-0.0583,-0.033,0.9858,-0.2664,-0.1731,2.4509,180.3331,1.0411,357.4348,left
0.1101,0.0005,1.0082,0.1697,0.2835,-0.4003,179.3809,2.1106,358.5425,left
0.0262,-0.0217,0.9745,0.137,0.0013,-2.1074,156.4131,1.3349,358.4993,left
-0.0225,0.0199,0.9775,0.2149,0.0187,-1.7155,131.6446,1.5505,0.4462,left
-0.0272,-0.0367,0.9175,-0.0759,-0.1609,-2.0011,106.2007,359.1394,1.4705,left
0.0606,0.0269,1.0194,-0.1632,-0.415,-1.0176,91.9011,353.0018,0.7932,left
0.1091,-0.047,0.9628,0.0304,0.3358,-0.0286,91.5332,354.103,1.8985,left
0.0652,-0.0456,0.9521,0.0561,0.2945,1.8235,105.9155,354.1655,0.7182,left
0.065,0.0318,0.9741,-0.0597,0.2182,2.3724,134.8933,357.7162,356.9556,left
-0.0025,-0.0487,0.9743,-0.045,0.3657,2.8208,170.2151,3.3535,358.1159,left
0.0417,-0.0253,0.9526,-0.0004,0.0905,0.1657,178.841,3.5598,358.7872,left
0.0633,-0.021,0.9782,0.0503,-0.5069,-2.6284,147.993,358.2053,0.5107,left
-0.0136,0.0148,0.9677,0.061,-0.5158,-1.6624,129.0465,355.4456,3.7263,left
-0.0062,0.017,1.0513,-0.063,0.3498,-1.3472,111.0958,0.7834,4.5467,left
0.0739,-0.007,1.045,-0.0184,-0.2977,-1.528,94.9902,356.7232,2.019,left
0.1152,0.0158,0.966,-0.0015,0.1079,0.1044,95.0894,358.9796,1.2506,left
0.0048,-0.0473,0.9823,-0.0803,0.3455,2.7653,125.9153,2.1946,359.878,left
-0.02,-0.0318,0.9368,0.4899,-0.3759,2.8664,158.1985,357.4754,2.9899,left
0.0817,-0.0856,0.9429,0.1775,0.3959,1.1648,183.3156,356.8924,2.9046,left
-0.0123,0.0459,0.9638,-0.1016,0.0779,-0.3287,181.8703,356.5662,2.9137,left
-0.0027,0.0129,0.9151,-0.0411,0.0932,-1.7343,159.5177,357.0899,5.1284,left
0.0233,-0.0562,1.0162,0.3037,-0.4483,-2.4847,129.354,356.8728,7.475,left
0.0773,0.0019,0.9068,-0.3457,0.9011,-1.6335,113.691,10.4193,3.7948,left
0.0007,-0.0379,0.9497,0.1247,-0.1719,-0.6479,106.2966,7.4327,2.6537,left
0.0192,-0.0318,0.9787,0.0204,0.0418,0.0082,107.7569,8.2931,3.0365,left
-0.1338,-0.063,0.9814,0.029,0.8121,2.7791,140.8299,12.8783,9.6482,left
-0.041,-0.0516,0.9485,-0.0324,-0.315,2.473,163.7113,5.357,11.4479,left
-0.0402,0.0481,0.948,-0.4783,0.2876,2.2479,190.8284,0.7843,9.3259,left
-0.0491,-0.0215,0.9628,0.2052,0.0521,0.2623,196.4687,358.7178,9.5952,left
-0.0481,0.0107,0.9494,0.1099,0.2623,-1.8339,174.8019,4.1862,9.493,left
-0.0193,0.0286,0.9624,-0.0831,-0.4634,-1.6027,152.1741,1.0557,9.8663,left
0.017,-0.0589,0.9984,0.262,0.0149,-1.7456,131.0252,4.8347,9.6912,left
-0.0104,0.0107,0.9926,-0.092,-0.2863,-1.208,115.1688,4.0006,7.1373,left
-0.0116,-0.0294,0.9804,0.0131,0.0402,-0.3632,110.8164,5.2172,4.6939,left
-0.0536,-0.0883,0.9638,0.0711,0.1826,1.5464,127.7721,3.4383,5.7396,left
-0.0289,-0.0039,0.996,-0.5214,0.1606,2.0186,152.0734,2.4316,4.3295,left
-0.0629,-0.0137,1.0031,0.2349,0.0072,1.7547,175.6085,2.1241,6.2225,left
0.0873,-0.0557,1.0545,-0.2102,-0.1827,1.422,197.8948,354.6881,1.315,left
0.025,-0.0311,0.9833,-0.0296,0.1312,-1.5599,182.1645,356.7725,1.5621,left
0.0669,0.0459,0.9897,0.244,-0.461,-1.872,157.5214,350.5631,7.2971,left
-0.1084,-0.0656,0.975,0.2306,0.3777,-1.2193,137.882,359.6559,8.9797,left
0.023,-0.0458,0.9728,0.0705,-0.8257,-1.1885,121.2078,354.0235,10.3815,left
0.1089,0.0653,0.9553,-0.1751,-0.0538,-0.0565,115.4549,351.9592,12.5725,left
-0.0429,-0.0369,0.9558,0.0008,0.2736,3.0653,151.5567,352.0619,4.7369,left
0.0575,-0.0183,0.9482,-0.0703,0.1621,2.0922,171.3739,351.079,2.1049,left
-0.0605,-0.0796,0.8878,-0.4533,0.1035,1.6921,194.0369,352.8208,356.1736,left
0.0558,-0.0523,1.0235,0.0244,-0.329,0.7382,205.1853,353.9097,353.5417,left
0.0965,-0.0304,1.0084,-0.0153,0.1309,-0.9728,194.7376,353.6809,354.0208,left
0.1079,-0.0299,0.9975,0.2485,-0.4072,-2.2685,165.7501,348.4906,0.3304,left
0.0211,0.0277,0.8746,-0.0205,-0.1898,-2.1967,133.2386,349.8846,8.3582,left
0.063,-0.048,1.0247,0.0974,-0.1168,-1.5418,111.3079,353.1267,9.7925,left
0.143,0.0592,1.0052,-0.2298,-0.0914,-0.2566,104.8025,353.0771,7.3176,left
0.0189,0.0352,1.0035,-0.1042,0.3964,2.2312,128.4758,354.8671,4.7584,left
-0.0059,-0.0198,1.0167,-0.0266,-0.0117,2.4661,157.0824,356.1769,1.1657,left
-0.0657,-0.0946,0.9638,-0.2185,-0.2334,2.2602,186.8691,355.0345,355.9314,left
0.0727,-0.0333,0.9909,0.0439,0.2137,0.2413,190.0664,357.6237,356.3633,left
-0.0054,-0.0738,0.976,0.3973,0.1594,-1.6335,171.4677,358.8564,1.1406,left
-0.0447,-0.0572,0.9801,0.3441,-0.2316,-2.4667,137.4169,356.3818,5.5441,left
0.0092,0.0143,0.9365,0.1551,-0.3474,-1.408,120.1285,357.0363,8.7982,left
0.0318,0.0005,1.0187,0.2012,-0.1791,-1.405,103.1369,356.8682,8.9925,left
0.047,0.0852,0.9743,-0.1465,-0.0293,0.329,104.4796,356.3196,8.2416,left
-0.0027,0.0675,0.9889,-0.1162,0.49,2.603,135.7814,358.9509,4.45,left
-0.0197,0.0269,0.9485,-0.1856,0.2007,2.5321,167.4447,359.9829,3.1532,left
-0.0114,-0.056,1.0157,-0.0671,0.0682,1.3308,185.9948,3.6747,1.4932,left
0.0373,0.0573,0.9987,0.0101,0.0293,-0.0257,185.8952,3.8695,1.2178,left
-0.0114,-0.0456,0.9597,0.2703,-0.0168,-2.1928,167.7618,3.8542,2.1144,left
0.0051,0.0117,1.0014,0.3568,-0.6869,-2.5929,135.0515,357.1694,6.4698,left
0.0473,-0.0145,0.9105,-0.3091,-0.0981,-1.8055,111.818,358.6358,7.1875,left
0.1069,0.0024,1.0693,0.0926,-0.3699,-0.3925,104.501,355.8844,5.1751,left
0.0148,0.0141,0.9784,-0.0082,0.4404,2.5589,127.3688,356.9863,4.4108,left
0.0594,-0.0485,0.9916,-0.0614,0.627,2.5134,163.1591,1.3327,3.666,left
-0.0044,-0.0063,1.0267,0.0364,-0.1964,1.1783,179.9024,0.1849,4.158,left
-0.0094,-0.0029,0.9987,-0.0928,-0.2367,0.6044,188.6182,357.5785,1.1101,left
0.0398,-0.0376,0.9936,0.4728,-0.1753,-2.5342,164.3734,358.5513,7.1781,left
0.0606,0.0158,0.977,-0.2572,0.4865,-1.5263,141.9253,3.3611,1.3858,left
-0.0541,0.0027,0.9999,-0.2355,-0.0513,-1.2774,121.024,3.1025,358.8416,left
0.0114,-0.0311,1.0111,-0.0473,-0.2749,-1.0013,108.6606,1.1916,355.7368,left
0.0769,0.0015,1.0091,-0.0102,-0.1298,0.1231,107.2758,357.3708,355.6641,left
-0.0111,-0.0253,1.0026,0.0203,0.5395,2.5934,135.0944,7.5824,354.4756,left
0.0291,-0.0499,0.9819,0.1309,-0.3429,3.733,178.1179,6.3321,3.2197,left
0.1127,-0.0545,0.947,0.1514,-0.2571,0.5058,186.325,359.1043,5.6662,left
0.0099,-0.0041,1.0291,0.1818,0.1179,-0.1632,184.511,0.8555,5.9331,left
0.0405,-0.0109,0.9185,0.0123,-0.0171,-2.4583,156.5053,1.1917,3.995,left
0.057,-0.0593,1.0323,-0.1994,-0.0372,-2.5026,134.1489,3.2655,359.7454,left
-0.0151,0.0262,0.9458,-0.1801,-0.1869,-1.3667,118.9834,1.8684,356.9074,left
0.0642,-0.0152,0.985,0.0074,-0.1014,-1.286,106.4389,0.4787,356.0932,left
0.0206,-0.0651,1.0011,-0.006,0.3736,0.0955,103.0968,2.8279,355.5896,left
-0.0138,-0.0109,0.967,-0.3503,-0.0815,1.7775,121.2013,2.3319,354.0495,left
0.0121,-0.0169,0.9855,0.0163,0.4524,3.4293,154.4228,7.7584,358.3478,left
-0.0471,-0.0379,1.0442,-0.1416,0.0941,2.3853,176.5359,11.6207,1.1271,left
0.0672,0.0505,0.9602,0.0285,-0.1319,0.7573,183.7819,8.2079,2.9534,left
-0.0627,-0.0075,0.9777,0.0395,0.683,-1.2017,171.7978,13.9873,0.9413,left
-0.1321,0.1649,0.9682,0.2191,-0.0042,-2.2457,138.9404,16.907,357.8283,left
-0.1634,0.0056,0.9597,0.2948,-0.3427,-1.6073,119.4513,13.6867,355.1709,left
-0.0202,-0.0215,0.8973,0.0227,-0.0531,-1.2341,106.3313,7.5928,354.6585,left
-0.0027,0.0175,0.9931,0.0471,-0.1179,-0.7353,97.6361,4.4812,353.8434,left
-0.0434,-0.0256,0.9848,0.0816,0.004,0.8071,106.6432,4.2213,355.8234,left
-0.0336,0.0743,0.9762,-0.2962,0.588,2.5267,136.536,11.3816,359.8972,left
-0.1577,-0.0352,0.9789,-0.2742,0.3623,1.7381,161.9707,15.8305,4.02,left
-0.1446,0.0459,0.9731,-0.1142,-0.1906,1.5108,177.7352,14.7755,7.422,left
-0.1101,0.1005,1.0043,0.176,0.183,-0.7051,171.3625,16.8961,7.8799,left
-0.1745,-0.0005,0.9658,-0.0778,-0.5271,-0.961,158.3902,13.7753,3.6369,left
-0.0116,0.0095,0.9553,-0.1633,0.0633,-1.9662,133.8957,10.107,357.3981,left
0.071,0.0112,0.9504,-0.0005,-0.6402,-1.917,110.9728,1.2168,355.0424,left
0.0936,-0.0116,0.9877,-0.0858,0.2034,-1.4842,92.1584,0.746,354.8717,left
0.0582,-0.0287,0.9804,0.0899,0.1381,0.3716,96.8488,0.8122,355.9097,left
-0.0158,-0.0516,0.9443,0.2918,0.4631,3.0285,121.3842,4.55,0.2437,left
0.0073,0.0333,0.9714,-0.0564,0.3736,2.8141,150.8347,6.9223,3.5801,left
0.0061,0.0245,0.9536,-0.5326,0.1698,1.9668,180.0989,6.8102,1.7097,left
0.0039,0.0561,1.0572,-0.0128,-0.1032,-0.8508,173.5379,5.6308,359.0953,left
0.0369,0.0136,0.9811,-0.1633,-0.1444,-2.4598,146.8682,1.7516,355.0557,left
0.0904,0.0143,0.9787,0.0975,-0.1524,-2.4299,116.7296,359.0096,354.1499,left
0.0977,-0.0193,0.9772,-0.1924,-0.0852,-1.3856,97.7689,355.0014,351.7489,left
0.0638,0.026,0.9992,0.0999,0.018,0.3496,99.3262,355.1612,352.5766,left
-0.0064,-0.0169,0.9782,-0.0204,0.4414,3.093,134.5577,5.4949,352.9229,left
-0.0642,-0.0292,0.995,-0.5179,0.2349,2.5988,163.5356,14.5534,354.0489,left
-0.0077,-0.0999,1.025,0.1531,0.0019,0.6825,174.2206,16.8722,356.3755,left
-0.0047,-0.0123,1.0381,0.1623,0.2047,-1.024,163.7047,17.9281,355.7599,left
-0.1056,-0.0374,0.9658,0.2004,0.2541,-1.8288,137.791,16.9901,351.432,left
-0.1293,-0.0203,0.9646,0.3773,-0.4896,-2.1302,112.946,7.4433,352.3008,left
0.096,0.0066,1.0564,-0.2412,-0.4334,-1.1168,101.2054,359.9504,349.2915,left
0.0788,0.0318,1.0004,-0.1346,-0.0568,-0.3257,95.8084,357.8611,349.9431,left
0.1222,-0.02,0.9582,0.0807,-0.0274,0.0312,98.4876,356.7592,350.3555,left
0.0623,0.0058,0.9758,0.1189,0.2573,1.7917,118.5982,1.2478,352.6046,left
0.033,0.0085,0.9792,-0.064,0.2967,2.6515,151.0571,7.331,357.1871,left
0.0558,-0.0724,0.9877,0.1928,0.1152,1.6854,177.1874,7.4832,0.8799,left
0.0572,0.0328,1.0067,0.151,0.1693,0.029,180.2186,9.007,3.0786,left
0.0029,-0.0497,0.9224,-0.1184,0.0822,-2.6319,149.5033,9.2254,358.9822,left
-0.0138,-0.0125,0.9992,-0.0793,-0.2785,-2.2192,125.2355,5.4695,355.3619,left
0.1244,0.0238,0.9733,0.0441,-0.0592,-1.5213,112.0389,3.4907,355.809,left
0.1009,0.0456,0.9504,-0.4205,-0.2635,-1.2058,98.2539,0.1052,352.7211,left
0.1013,-0.034,1.0055,0.0287,0.0366,0.0582,97.4424,359.7479,352.3436,left
0.0468,-0.0005,0.9438,-0.0303,0.3909,2.0631,119.8437,3.9899,355.1638,left
0.0228,-0.0572,0.967,0.4135,-0.2298,3.1773,157.7859,2.0202,0.2683,left
0.0349,-0.1182,0.9687,-0.1353,0.0827,1.4546,181.013,1.1907,1.7421,left
0.0303,0.0104,1.0004,0.0904,0.1954,0.0588,181.8887,3.2712,1.9137,left
-0.0069,-0.0456,1.007,0.1817,0.2525,-1.403,164.1915,6.9833,2.4936,left
-0.0575,-0.02,0.9724,0.3704,0.0647,-2.2573,139.6661,9.1767,3.068,left
-0.0647,-0.0082,0.9928,-0.0275,-0.6409,-2.06,113.1475,3.7618,359.1785,left
0.0899,-0.0598,0.9334,-0.2664,-0.0233,-1.0905,97.1418,1.4332,357.3806,left
0.0701,-0.0456,1.0067,0.025,0.1221,0.6941,103.8822,1.8198,355.712,left
0.0434,0.0189,1.0021,-0.0156,0.1651,0.8312,115.9879,3.81,357.4547,left
-0.0427,-0.0581,1.0221,0.2116,0.1349,2.0756,141.2924,8.9784,357.9325,left
-0.1269,0.0141,0.9996,-0.1509,0.0338,1.7833,163.8611,11.8462,1.8368,left
-0.0721,0.0561,0.9558,-0.2145,-0.1537,1.191,176.7707,7.3346,1.9076,left
-0.059,0.0367,1.0128,0.0183,-0.0915,0.0207,176.822,6.3686,1.731,left
