acc_x,acc_y,acc_z,gyro_x,gyro_y,gyro_z,direction
0.098576,0.127734,0.9394,1.837668,0.057835,0.026343,rest
0.147376,-0.066307,0.967887,1.455221,-0.305735,-0.116699,rest
0.065209,-0.275964,0.923906,-0.480697,0.256223,0.02437,rest
0.127551,-0.213439,0.954833,-0.155484,-0.092158,0.013815,rest
0.132431,-0.196115,0.962824,0.039987,-0.093703,0.011927,rest
0.138287,-0.201849,0.951478,-0.096706,-0.017934,0.042475,rest
0.126392,-0.177022,0.953064,-0.039129,-0.009439,-0.011327,rest
0.134078,-0.155794,0.952759,-0.029346,0.070277,0.038013,rest
0.149389,-0.151768,0.959469,-0.019393,-0.000858,-0.006521,rest
0.147803,-0.148657,0.957151,-0.031063,-0.001888,-0.011498,rest
-0.024156,-0.016104,0.982161,0.03235,-0.026257,-0.006693,rest
-0.025315,-0.014213,0.981185,0.031663,-0.029518,-0.005234,rest
-0.025193,-0.015433,0.979477,0.019736,-0.030119,-0.008752,rest
-0.027755,-0.014152,0.981002,0.006693,-0.024799,-0.003861,rest
-0.027084,-0.013298,0.981185,0.018964,-0.019993,-0.00532,rest
-0.026291,-0.011651,0.981002,0.046508,-0.026772,-0.004548,rest
-0.025803,-0.012017,0.981368,0.026686,-0.025914,-0.005578,rest
-0.025437,-0.013542,0.981002,0.000772,-0.025828,-0.006436,rest
-0.0244,-0.011224,0.981795,0.031234,-0.022739,-0.006865,rest
-0.024339,-0.010126,0.9821,0.028832,-0.024713,-0.007723,rest
-0.025437,-0.03538,0.98515,0.019564,-0.02437,-0.008323,rest
-0.029768,-0.034892,0.984723,0.023683,-0.022482,-0.001545,rest
-0.025254,-0.037637,0.984357,0.020766,-0.029346,-0.019393,rest
-0.029829,-0.042517,0.983564,0.040244,-0.025399,-0.003261,rest
-0.029341,-0.043737,0.983503,0.060323,-0.03295,-0.002746,rest
-0.032574,-0.049593,0.983686,0.030376,-0.025571,-0.002746,rest
-0.03233,-0.047031,0.982893,0.046937,-0.034838,0.002145,rest
-0.032391,-0.050996,0.983869,0.010812,-0.032092,-0.013043,rest
-0.034526,-0.046482,0.985028,0.064871,-0.02969,-0.002488,rest
-0.033428,-0.048129,0.984967,0.01862,-0.025828,-0.004805,rest
-0.031903,-0.073078,0.984357,0.031749,-0.024799,-0.004376,rest
-0.030927,-0.074725,0.984601,0.02394,-0.024112,-0.003947,rest
-0.032574,-0.07259,0.984906,0.039901,-0.025485,-0.002488,rest
-0.034038,-0.076372,0.999363,0.038185,-0.019307,-0.004805,rest
-0.029524,-0.071431,0.985455,0.065643,-0.026772,-0.000944,rest
-0.030317,-0.076128,0.984479,0.022568,-0.024799,-0.003089,rest
-0.03111,-0.078385,0.984235,0.029089,-0.025571,-0.008495,rest
-0.032208,-0.075823,0.983869,0.04136,-0.024541,-0.00695,rest
-0.032269,-0.073444,0.984784,0.046336,-0.024284,-0.003089,rest
-0.032696,-0.077226,0.984906,-0.01596,-0.01802,-0.002488,rest
-0.024278,-0.07076,0.985394,0.09928,-0.036211,-0.009181,rest
-0.031232,-0.077165,0.984723,0.031577,-0.027201,-0.002832,rest
-0.032818,-0.077409,0.984723,0.025742,-0.024198,-0.004462,rest
-0.030988,-0.077897,0.984845,0.019736,-0.025571,-0.005148,rest
-0.032513,-0.078629,0.983686,0.023683,-0.000429,-0.003347,rest
-0.030256,-0.076555,0.984235,0.037756,-0.026686,-0.004119,rest
-0.031964,-0.077104,0.983625,0.000343,-0.024627,-0.004805,rest
-0.031842,-0.0793,0.999363,0.011842,-0.021195,-0.002145,rest
-0.031354,-0.079971,0.983564,0.019135,-0.022224,-0.007551,rest
-0.029463,-0.078019,0.983381,0.050198,-0.023597,-0.008066,rest
-0.03111,-0.088877,0.982466,-0.015531,-0.027888,-0.055861,rest
-0.022875,-0.059597,0.985211,0.136607,-0.054059,0.009353,rest
-0.036112,-0.087108,0.982283,-0.038185,-0.007894,-0.00429,rest
-0.037454,-0.077836,0.982649,-0.010211,-0.018277,0.004891,rest
-0.046848,-0.08906,0.98149,-0.037927,-0.017676,-0.032092,rest
-0.031781,-0.071004,0.987773,0.011069,-0.000257,0.006264,rest
-0.030439,-0.083021,0.982405,-0.100138,-0.010983,-0.018277,rest
-0.026718,-0.076982,0.981978,0.013901,-0.017591,-0.007894,rest
-0.026291,-0.074237,0.981978,0.000772,-0.020851,-0.004376,rest
-0.027023,-0.07503,0.981307,0.028145,-0.023254,-0.00532,rest
-0.026596,-0.078446,0.983869,0.023082,-0.025399,-0.009525,rest
-0.029036,-0.07564,0.983198,0.039386,-0.022568,-0.003003,rest
-0.027572,-0.076982,0.982344,0.032865,-0.000172,-0.006092,rest
-0.030927,-0.076799,0.982771,0.01064,-0.019049,-0.005578,rest
-0.032757,-0.071553,0.983442,0.00163,-0.025313,0.007294,rest
-0.029768,-0.080764,0.9821,-0.042904,-0.022224,-0.00369,rest
-0.028365,-0.081191,0.982039,0.069419,-0.033294,-0.01699,rest
-0.024644,-0.074908,0.981612,0.072508,-0.030805,-0.003947,rest
-0.03111,-0.088084,0.98149,0.013729,-0.043934,-0.012871,rest
-0.028731,-0.073932,0.981856,0.05526,-0.029861,-0.001716,rest
-0.027572,-0.077836,0.98088,0.042218,-0.025228,-0.005578,rest
-0.027084,-0.077165,0.981002,0.046594,-0.025914,-0.003604,rest
-0.027755,-0.077897,0.981246,0.026944,-0.023426,-0.003776,rest
-0.027145,-0.079971,0.981795,0.003432,-0.02128,-0.002746,rest
-0.026291,-0.080764,0.981551,0.022482,-0.023855,-0.004462,rest
-0.028731,-0.0793,0.981429,0.037241,-0.021195,-0.004977,rest
-0.026291,-0.080337,0.981734,0.027973,-0.02394,-0.006693,rest
-0.027633,-0.07991,0.98149,0.031577,-0.024198,-0.006007,rest
-0.026779,-0.080276,0.981185,0.031749,-0.022997,-0.005749,rest
-0.028914,-0.080154,0.980941,0.006865,-0.021366,-0.004548,rest
-0.028243,-0.081374,0.983259,0.024799,-0.000343,-0.006779,rest
-0.02562,-0.078202,0.983442,0.004977,-0.023426,-0.010469,rest
-0.02562,-0.078446,0.983442,0.026343,-0.023254,-0.00695,rest
-0.024339,-0.079361,0.983381,0.043333,-0.026429,-0.00635,rest
-0.024522,-0.080215,0.98332,0.028059,-0.025571,-0.009267,rest
-0.024522,-0.081618,0.983259,0.02128,-0.020251,-0.004205,rest
-0.02623,-0.080764,0.983076,0.033122,-0.02231,-0.004205,rest
-0.025681,-0.079483,0.983137,0.047709,-0.025657,-0.003861,rest
-0.024766,-0.079666,0.983259,0.033808,-0.025399,-0.005406,rest
-0.02562,-0.082106,0.982893,0.029604,-0.025828,-0.006607,rest
-0.023668,-0.081435,0.982893,0.033723,-0.02497,-0.00695,rest
-0.025864,-0.081191,0.982954,0.021452,-0.022224,-0.00429,rest
-0.024034,-0.08235,0.98332,0.01802,-0.022911,-0.006521,rest
-0.025437,-0.082106,0.983198,0.028145,-0.022568,-0.004891,rest
-0.025193,-0.08174,0.983381,0.025485,-0.043333,-0.005063,rest
-0.024766,-0.081862,0.983259,0.027544,-0.025228,-0.007036,rest
-0.024827,-0.081984,0.983686,0.030548,-0.024799,-0.004119,rest
-0.023912,-0.082472,0.983381,0.02394,-0.023769,-0.005749,rest
-0.023607,-0.082777,0.982954,0.002059,-0.023254,-0.006865,rest
-0.023973,-0.081984,0.982588,0.029346,-0.026858,-0.006264,rest
-0.025376,-0.084363,0.983991,0.021195,-0.023511,-0.004719,rest
-0.02623,-0.082899,0.983564,0.047709,-0.025571,-0.002746,rest
-0.025437,-0.08235,0.983564,0.044792,-0.027802,-0.00532,rest
-0.026413,-0.084973,0.982222,0.030719,-0.043419,-0.004376,rest
-0.025742,-0.083692,0.982344,0.041445,-0.026429,-0.006693,rest
-0.026535,-0.083448,0.982405,0.032435,-0.023082,-0.004376,rest
-0.024644,-0.083692,0.982039,0.025228,-0.000429,-0.007551,rest
-0.02623,-0.083997,0.981856,0.007723,-0.028317,-0.005406,rest
-0.025742,-0.082289,0.981002,0.020337,-0.019822,-0.007723,rest
-0.026901,-0.083326,0.981368,0.013214,-0.000601,-0.003347,rest
-0.020496,-0.080825,0.983503,0.026858,-0.025056,-0.005921,rest
-0.020557,-0.079605,0.98454,0.02703,-0.023597,-0.005492,rest
-0.020862,-0.080642,0.984235,0.019049,-0.023511,-0.005406,rest
-0.021594,-0.080337,0.984174,0.023082,-0.022396,-0.004462,rest
-0.020069,-0.0793,0.98637,-0.001287,-0.023082,-0.006607,rest
-0.020496,-0.079117,0.98515,0.02394,-0.024112,-0.001974,rest
-0.021472,-0.081496,0.984418,0.028746,-0.024627,-0.005234,rest
-0.019764,-0.083021,0.984723,0.024884,-0.024112,-0.010726,rest
-0.020801,-0.080093,0.984296,0.018191,-0.022568,-0.003776,rest
-0.020923,-0.081252,0.984601,0.017505,-0.023168,-0.007465,rest
-0.022936,-0.086559,0.979111,0.0133,-0.025056,-0.007551,rest
-0.0244,-0.085095,0.97905,0.051485,-0.031063,-0.00369,rest
-0.024156,-0.087413,0.980087,0.011241,-0.021109,-0.005234,rest
-0.024583,-0.087657,0.980148,0.022053,-0.022911,-0.006436,rest
-0.023119,-0.086925,0.980697,0.025914,-0.023168,-0.007208,rest
-0.023912,-0.08723,0.981124,0.019564,-0.019993,-0.007723,rest
-0.023485,-0.085705,0.981795,0.039558,-0.022997,-0.004891,rest
-0.023973,-0.085583,0.981673,0.037069,-0.025399,-0.005921,rest
-0.022448,-0.087169,0.982466,0.019135,-0.025056,-0.006264,rest
-0.024522,-0.086803,0.982283,0.021023,-0.02394,-0.00695,rest
-0.02196,-0.084302,0.981185,0.020422,-0.023855,-0.005921,rest
-0.022204,-0.084729,0.981063,0.029518,-0.024713,-0.007122,rest
-0.023668,-0.083387,0.980758,0.037498,-0.026086,-0.002403,rest
-0.021838,-0.084729,0.981673,0.013386,-0.001459,-0.005578,rest
-0.022448,-0.085766,0.981612,0.016733,-0.023683,-0.004977,rest
-0.022692,-0.084668,0.981734,0.025056,-0.024713,-0.00738,rest
-0.021777,-0.083875,0.981978,0.01862,-0.022911,-0.007551,rest
-0.022631,-0.085461,0.981673,0.014845,-0.024713,-0.006007,rest
-0.022997,-0.084851,0.981551,0.031492,-0.02231,-0.005234,rest
-0.023546,-0.0854,0.981795,0.020851,-0.02334,-0.00532,rest
-0.026352,-0.109373,0.981368,0.023511,-0.025142,-0.004548,rest
-0.026535,-0.108885,0.981307,0.022739,-0.043762,-0.006007,rest
-0.025803,-0.107421,0.981368,0.030634,-0.043505,-0.006607,rest
-0.02562,-0.106689,0.981917,0.026515,-0.022568,-0.00635,rest
-0.025986,-0.107604,0.98149,0.030033,-0.025228,-0.006779,rest
-0.026291,-0.106445,0.981978,0.023168,-0.02068,-0.006178,rest
-0.026413,-0.10431,0.982344,0.038871,-0.024026,-0.004119,rest
-0.024827,-0.105469,0.98271,0.00532,-0.019307,-0.005234,rest
-0.022997,-0.105835,0.983198,0.005406,-0.019221,-0.008924,rest
-0.024766,-0.105103,0.98271,0.021795,-0.025571,-0.004462,rest
-0.024217,-0.104188,0.98088,0.034667,-0.024112,-0.00532,rest
-0.0244,-0.103151,0.980941,0.049426,-0.024284,-0.005835,rest
-0.024949,-0.103334,0.98088,0.036125,-0.024713,-0.003776,rest
-0.024095,-0.104554,0.981185,0.023769,-0.02068,-0.004634,rest
-0.02379,-0.104066,0.981612,0.030462,-0.022997,-0.00635,rest
-0.023424,-0.103822,0.981856,0.033808,-0.025914,-0.005578,rest
-0.023912,-0.103639,0.982039,0.036039,-0.043591,-0.004977,rest
-0.02257,-0.1037,0.982344,0.036983,-0.02969,-0.008238,rest
-0.023668,-0.10431,0.982344,0.030119,-0.025914,-0.007809,rest
-0.022997,-0.104859,0.982649,0.031063,-0.026772,-0.007208,rest
-0.023912,-0.106872,0.980636,0.026772,-0.024541,-0.00738,rest
-0.023363,-0.105286,0.981124,0.022482,-0.000772,-0.006007,rest
-0.022875,-0.105103,0.981063,0.014587,-0.023254,-0.008409,rest
-0.023851,-0.104554,0.980636,0.027459,-0.025742,-0.002746,rest
-0.024522,-0.105896,0.981429,0.012957,-0.043848,-0.003175,rest
-0.023973,-0.10675,0.980758,0.032779,-0.024112,-0.003861,rest
-0.02379,-0.107848,0.981002,0.029775,-0.026343,-0.006178,rest
-0.024217,-0.108153,0.98088,0.025056,-0.00163,-0.006264,rest
-0.024461,-0.108336,0.979904,0.016561,-0.021109,-0.005234,rest
-0.025254,-0.109068,0.981551,0.024627,-0.028145,-0.003261,rest
-0.022753,-0.108214,0.981856,0.017848,-0.023769,-0.00798,rest
-0.022814,-0.108092,0.982405,0.01802,-0.026944,-0.006865,rest
-0.024156,-0.107116,0.982466,0.03235,-0.026601,-0.005148,rest
-0.023119,-0.107543,0.982161,0.042218,-0.029003,-0.008238,rest
-0.023973,-0.108031,0.97844,0.024627,-0.001545,-0.009525,rest
-0.02318,-0.106384,0.980941,0.019993,-0.025399,-0.008066,rest
-0.021655,-0.105774,0.983869,0.000172,-0.029861,-0.007465,rest
-0.018361,-0.11102,0.981734,0.09396,-0.022911,-0.013043,rest
-0.023912,-0.106872,0.981063,0.045478,-0.025142,-0.005578,rest
-0.025193,-0.108336,0.980209,0.033208,-0.02231,-0.004548,rest
-0.024339,-0.106323,0.980575,0.019135,-0.02763,-0.008066,rest
-0.02318,-0.10797,0.980941,-0.021624,-0.043762,-0.005921,rest
-0.023912,-0.108641,0.980941,0.02969,-0.026343,-0.004891,rest
-0.022021,-0.106933,0.979416,0.06161,-0.024799,-0.006521,rest
-0.022082,-0.106933,0.981795,0.024713,-0.025742,-0.006436,rest
-0.024461,-0.109434,0.981063,-0.005234,-0.043591,-0.006092,rest
-0.023729,-0.108153,0.980819,0.027716,-0.000429,-0.005749,rest
-0.022204,-0.107665,0.981795,0.053287,-0.027888,-0.007036,rest
-0.02318,-0.108519,0.981734,0.033465,-0.025742,-0.005492,rest
-0.024583,-0.108763,0.981673,0.037927,-0.025571,-0.003947,rest
-0.024278,-0.109983,0.980026,0.008667,-0.02334,-0.004376,rest
-0.022631,-0.110532,0.979477,-0.015102,-0.022739,-0.007809,rest
-0.019398,-0.10797,0.98088,-0.019993,-0.021452,-0.012356,rest
-0.024461,-0.105896,0.979538,0.035868,-0.025571,-0.00532,rest
-0.022692,-0.103883,0.980575,0.082033,-0.025399,0.002917,rest
-0.024156,-0.108824,0.980941,-0.023082,-0.026858,-0.007122,rest
-0.02196,-0.110715,0.978989,0.031921,-0.026,-0.001287,rest
-0.01647,-0.120841,0.975878,0.074138,-0.027373,-0.026858,rest
-0.026474,-0.106445,0.978684,0.135062,-0.032607,-0.007465,rest
-0.023119,-0.117059,0.978562,0.005406,-0.018706,-0.017591,rest
-0.027999,-0.109556,0.979721,0.011927,-0.022568,-0.006092,rest
-0.026474,-0.102114,0.980697,-0.052,-0.01433,0.019135,rest
-0.021411,-0.110776,0.980209,-0.02763,-0.024284,-0.024884,rest
-0.019642,-0.103212,0.978989,0.133346,-0.034152,-0.018964,rest
-0.02379,-0.095038,0.980148,0.070534,-0.032092,-0.010383,rest
-0.024949,-0.105774,0.981063,-0.027888,-0.019908,-0.006264,rest
-0.022753,-0.099247,0.981002,0.080145,-0.032435,-0.002231,rest
-0.020801,-0.099979,0.980392,0.057234,-0.032865,-0.002145,rest
-0.027145,-0.105957,0.991982,-0.014587,-0.016218,0.004119,rest
-0.024278,-0.110044,0.979721,-0.031749,-0.020851,-0.019736,rest
-0.024949,-0.10431,0.982222,0.024541,-0.021538,-0.00429,rest
-0.024095,-0.105347,0.982222,0.020851,-0.042818,-0.005749,rest
-0.025071,-0.10553,0.981673,0.023511,-0.026,-0.006178,rest
-0.024705,-0.105164,0.981673,0.035096,-0.025828,-0.004719,rest
-0.026291,-0.10614,0.981856,0.023254,-0.025142,-0.006264,rest
-0.025315,-0.106567,0.98149,0.037155,-0.026086,-0.005063,rest
-0.027633,-0.106079,0.981978,0.032264,-0.02497,-0.004205,rest
-0.02501,-0.107238,0.981612,0.020766,-0.024713,-0.008409,rest
-0.025254,-0.106811,0.981856,0.029861,-0.024112,-0.007551,rest
-0.024705,-0.106018,0.9821,0.036125,-0.024026,-0.006264,rest
-0.028548,-0.123891,0.97905,0.02969,-0.026772,-0.007809,rest
-0.030439,-0.123769,0.978623,0.03398,-0.025142,-0.002317,rest
-0.028609,-0.12505,0.978806,0,-0.025828,-0.00695,rest
-0.030134,-0.12383,0.979538,0.030204,-0.027973,-0.004462,rest
-0.029707,-0.123037,0.979477,0.03235,-0.000772,-0.005148,rest
-0.028853,-0.123952,0.979355,0.024026,-0.024112,-0.004891,rest
-0.029707,-0.123952,0.979782,0.022139,-0.023254,-0.004033,rest
-0.02928,-0.123891,0.979172,0.025142,-0.024713,-0.007122,rest
-0.030256,-0.124257,0.97966,0.035353,-0.024799,-0.004548,rest
-0.030073,-0.124928,0.979599,0.029861,-0.025142,-0.006521,rest
-0.028487,-0.122122,0.97844,0.037327,-0.025142,-0.007465,rest
-0.029097,-0.12078,0.978623,0.045993,-0.025485,-0.002231,rest
-0.028609,-0.122854,0.97844,0.013129,-0.042732,-0.007637,rest
-0.02928,-0.123037,0.978196,0.013987,-0.023511,-0.006007,rest
-0.028975,-0.121451,0.978928,0.013729,-0.023683,-0.003776,rest
-0.028731,-0.122183,0.978257,0.01064,-0.020165,-0.007894,rest
-0.028853,-0.121024,0.97844,0.029947,-0.02437,-0.006607,rest
-0.029097,-0.119682,0.978257,0.044363,-0.025228,-0.004891,rest
-0.029097,-0.119499,0.978562,0.036039,-0.025399,-0.002832,rest
-0.028792,-0.120109,0.978745,0.033894,-0.024884,-0.008238,rest
-0.03416,-0.152988,0.97661,0.035181,-0.022739,-0.006779,rest
-0.033733,-0.152378,0.977037,0.025742,-0.025228,-0.005663,rest
-0.033611,-0.153171,0.977525,0.02437,-0.026,-0.006436,rest
-0.034282,-0.15372,0.975085,0.044363,-0.021624,-0.001888,rest
-0.032696,-0.151768,0.977098,0.025313,-0.023254,-0.003432,rest
-0.034404,-0.152683,0.976244,0.018106,-0.00103,-0.007122,rest
-0.033489,-0.152317,0.976183,0.019564,-0.020766,-0.006264,rest
-0.033367,-0.15189,0.976122,0.015445,-0.026515,-0.007036,rest
-0.033672,-0.151402,0.975695,0.029003,-0.024799,-0.006178,rest
-0.033489,-0.150426,0.975756,0.030805,-0.026515,-0.004205,rest
-0.033855,-0.149816,0.972523,0.047709,-0.023683,-0.007465,rest
-0.033184,-0.150121,0.97295,0.038356,-0.022396,-0.00695,rest
-0.034221,-0.150426,0.972462,0.040416,-0.043934,-0.005578,rest
-0.032452,-0.15006,0.97356,0.025914,-0.023254,-0.006865,rest
-0.03416,-0.151097,0.973865,0.017676,-0.000257,-0.004977,rest
-0.033245,-0.151341,0.973987,0.021109,-0.025485,-0.006264,rest
-0.034099,-0.152012,0.973621,0.027287,-0.026257,-0.006693,rest
-0.033916,-0.150731,0.973621,0,-0.023683,-0.003089,rest
-0.033794,-0.151036,0.973865,0.042818,-0.02231,-0.007208,rest
-0.034221,-0.150975,0.97356,0.019049,-0.022224,-0.005835,rest
-0.035502,-0.191357,0.968985,0.030033,-0.025142,-0.007723,rest
-0.035319,-0.188063,0.970083,0.01596,-0.023426,-0.007894,rest
-0.035014,-0.189527,0.969107,0.004376,-0.021538,-0.00695,rest
-0.036844,-0.188368,0.968619,0.01965,-0.026171,-0.005663,rest
-0.035258,-0.185013,0.970083,0.020079,-0.022997,-0.005578,rest
-0.035563,-0.18544,0.969534,0.012614,-0.022224,-0.006607,rest
-0.036661,-0.183915,0.969595,0.032865,-0.025228,-0.002746,rest
-0.036112,-0.184098,0.969168,0.029346,-0.023683,-0.005749,rest
-0.037332,-0.185074,0.968375,0.023597,-0.025742,-0.005148,rest
-0.036661,-0.185379,0.968192,0.028231,-0.026944,-0.005063,rest
-0.038735,-0.187514,0.970083,0.019564,-0.022825,-0.007465,rest
-0.040199,-0.186843,0.969717,0.021709,-0.023254,-0.004119,rest
-0.03904,-0.186355,0.969656,0.021452,-0.020851,-0.006264,rest
-0.039955,-0.184159,0.9699,0.065815,-0.025056,-0.006178,rest
-0.038735,-0.184464,0.970327,0.036211,-0.026086,-0.003776,rest
-0.039528,-0.182817,0.970693,0.040673,-0.024026,-0.004462,rest
-0.038003,-0.184647,0.971059,0.025399,-0.026171,-0.006779,rest
-0.040138,-0.18422,0.970266,0.023426,-0.022396,-0.003347,rest
-0.038979,-0.186965,0.967033,-0.001459,-0.016132,-0.010211,rest
-0.038674,-0.169275,0.972462,0.09027,-0.033723,-0.002145,rest
-0.036905,-0.152744,0.975268,0.088039,-0.03664,0.021795,rest
-0.035807,-0.162016,0.974292,0.004119,-0.043934,-0.012442,rest
-0.037027,-0.159759,0.974841,0.021538,-0.025742,-0.004376,rest
-0.037271,-0.161711,0.972157,0.035868,-0.000686,-0.007294,rest
-0.036539,-0.157075,0.975207,-0.004805,-0.020508,-0.003776,rest
-0.035929,-0.160735,0.974292,-0.010812,-0.019822,-0.006779,rest
-0.03721,-0.158722,0.973865,0.002231,-0.019908,-0.004891,rest
-0.036356,-0.154696,0.975268,0.022224,-0.023426,-0.002488,rest
-0.035075,-0.171593,0.974536,0.06959,-0.026343,-0.015703,rest
-0.036234,-0.151219,0.973987,0.110006,-0.032006,-0.00266,rest
-0.035624,-0.140178,0.974353,0.03235,-0.029604,-0.00738,rest
-0.034099,-0.145058,0.975573,-0.018106,-0.019049,-0.003347,rest
-0.033184,-0.140727,0.976305,0.022482,-0.024799,-0.005063,rest
-0.031842,-0.143228,0.976,0.036812,-0.020508,-0.007036,rest
-0.033794,-0.142618,0.977159,-0.036211,-0.02128,-0.007637,rest
-0.034038,-0.143838,0.976976,0.01802,-0.026429,-0.001116,rest
-0.033245,-0.143838,0.976915,0.035525,-0.02394,-0.005749,rest
-0.030744,-0.147925,0.976915,0.008752,-0.018191,-0.018706,rest
-0.034709,-0.140239,0.977281,0.02334,-0.022396,-0.000772,rest
-0.033855,-0.14396,0.976366,0.052515,-0.025657,-0.005921,rest
-0.033245,-0.14091,0.973987,0.038699,-0.023683,-0.007465,rest
-0.033611,-0.140178,0.974353,0.025914,-0.026515,-0.007036,rest
-0.031842,-0.1403,0.974536,0.015789,-0.023168,-0.005921,rest
-0.033367,-0.142496,0.973987,0.00103,-0.000515,-0.00695,rest
-0.034038,-0.146461,0.973072,0.071392,-0.030719,-0.043076,rest
-0.032818,-0.135115,0.974292,-0.05097,-0.01596,-0.040416,rest
-0.031842,-0.124867,0.977037,-0.109405,-0.019736,-0.037498,rest
-0.032757,-0.103334,0.979233,0.064871,-0.03561,-0.017676,rest
-0.032391,-0.103639,0.979477,0.007551,-0.031492,-0.022911,rest
-0.033611,-0.094184,0.980026,0.027716,-0.03029,-0.003776,rest
-0.029036,-0.11102,0.981063,0.01862,-0.026,-0.007809,rest
-0.028609,-0.106933,0.982161,0.061267,-0.026858,-0.005921,rest
-0.027145,-0.109373,0.980819,0.02763,-0.043762,-0.010125,rest
-0.028182,-0.108397,0.981063,0.052429,-0.028832,-0.006865,rest
-0.028853,-0.108214,0.981429,0.022825,-0.023597,-0.005492,rest
-0.028853,-0.11041,0.980392,0.01167,-0.023683,-0.005492,rest
-0.028304,-0.109617,0.98027,0.026686,-0.026,-0.006092,rest
-0.029341,-0.109495,0.979233,0.039558,-0.025142,-0.006092,rest
-0.028426,-0.11102,0.979172,0.03767,-0.024541,-0.008152,rest
-0.028365,-0.109922,0.979721,0.031406,-0.024198,-0.008066,rest
-0.030195,-0.108153,0.981734,0.03561,-0.02497,-0.00635,rest
-0.026596,-0.108397,0.982222,0.029432,-0.038099,0.002488,rest
-0.029646,-0.109556,0.982771,0.006693,-0.017591,-0.005492,rest
-0.027084,-0.107482,0.981917,-0.009439,-0.017162,-0.007465,rest
-0.030378,-0.097844,0.981856,0.096277,-0.022825,-0.002231,rest
-0.028548,-0.105896,0.982405,0.028746,-0.024455,-0.001201,rest
-0.026901,-0.105469,0.981978,0.04196,-0.023168,-0.006264,rest
-0.026718,-0.108031,0.981612,0.029518,-0.022482,-0.005835,rest
-0.025498,-0.108763,0.981307,0.033036,-0.021967,-0.006607,rest
-0.025742,-0.109068,0.981002,0.038013,-0.02703,-0.004376,rest
-0.02501,-0.116937,0.977342,0.019993,-0.021967,-0.005406,rest
-0.024949,-0.116571,0.977281,0.029604,-0.025399,-0.006865,rest
-0.025254,-0.116449,0.977708,0.032178,-0.024713,-0.004548,rest
-0.025742,-0.117608,0.978257,0.022139,-0.023855,-0.005148,rest
-0.025925,-0.117974,0.977891,0.024627,-0.025399,-0.001974,rest
-0.026657,-0.117486,0.978074,0.024627,-0.024198,-0.00532,rest
-0.025132,-0.117913,0.978379,0.043762,-0.024284,-0.005492,rest
-0.024949,-0.116876,0.978318,0.02866,-0.024284,-0.005492,rest
-0.02501,-0.117059,0.97844,0.030204,-0.024112,-0.007208,rest
-0.025071,-0.11773,0.978501,0.027201,-0.02334,-0.006865,rest
-0.026047,-0.119926,0.978196,0.033122,-0.025056,-0.003261,rest
-0.025498,-0.12017,0.978867,0.019393,-0.02497,-0.006865,rest
-0.026535,-0.119316,0.979355,0.023511,-0.024026,-0.002832,rest
-0.026657,-0.120475,0.978684,0.028145,-0.02334,-0.004548,rest
-0.025193,-0.121146,0.978318,0.036812,-0.022997,-0.007036,rest
-0.025071,-0.121573,0.978928,0.037327,-0.025056,-0.007294,rest
-0.025559,-0.120414,0.979599,0.04299,-0.020594,-0.002145,rest
-0.024766,-0.121268,0.979233,0.019307,-0.043591,-0.005406,rest
-0.024339,-0.121695,0.979294,0.018964,-0.02437,-0.007809,rest
-0.026291,-0.119499,0.978318,0.024799,-0.023683,-0.004462,rest
-0.024766,-0.122305,0.979965,-0.012785,-0.022396,-0.008752,rest
-0.02501,-0.119987,0.980209,0.029175,-0.027115,-0.004462,rest
-0.02684,-0.12017,0.97966,0.030376,-0.026171,-0.002917,rest
-0.025254,-0.121634,0.979904,0.012785,-0.000257,-0.004977,rest
-0.025498,-0.121817,0.979904,0.025142,-0.024112,-0.00369,rest
-0.024644,-0.120963,0.980331,0.032607,-0.02231,-0.004805,rest
-0.025071,-0.121207,0.980453,0.026429,-0.027287,-0.004719,rest
-0.025437,-0.12139,0.980087,0.018878,-0.026171,-0.003518,rest
-0.024827,-0.122854,0.979416,0.02068,-0.025399,-0.006092,rest
-0.026474,-0.120414,0.979294,0.040587,-0.028317,-0.004719,rest
-0.02562,-0.122,0.980575,0.035696,-0.02437,-0.005749,rest
-0.026169,-0.123525,0.98027,0.02068,-0.000858,-0.003604,rest
-0.025986,-0.123769,0.979111,0.02128,-0.022139,-0.007294,rest
-0.025498,-0.122854,0.980209,0.036898,-0.027973,-0.005835,rest
-0.025376,-0.123342,0.979965,0.028231,-0.043848,-0.005921,rest
-0.026169,-0.123586,0.980209,0.029175,-0.043333,-0.00429,rest
-0.025193,-0.123159,0.980392,0.029518,-0.025142,-0.005663,rest
-0.026901,-0.123098,0.980819,0.014673,-0.026,-0.003518,rest
-0.024888,-0.12322,0.980209,0.029089,-0.02497,-0.005492,rest
-0.025986,-0.122976,0.97966,0.029003,-0.043162,-0.003003,rest
-0.025071,-0.123037,0.981368,0.030977,-0.025571,-0.007208,rest
-0.025315,-0.123464,0.980148,0.032521,-0.026,-0.00901,rest
-0.026169,-0.12322,0.980697,0.035353,-0.024455,-0.005406,rest
-0.025498,-0.123769,0.980941,0.02497,-0.025313,-0.00695,rest
-0.026413,-0.123952,0.981002,0.003089,-0.024799,-0.005492,rest
-0.026108,-0.124013,0.981307,0.020937,-0.02497,-0.005492,rest
-0.027511,-0.123769,0.980514,0.025056,-0.022825,-0.005749,rest
-0.026169,-0.124989,0.980697,0.020251,-0.025828,-0.003776,rest
-0.026657,-0.124745,0.980453,0.021195,-0.000601,-0.003861,rest
-0.024888,-0.124562,0.980331,0.031406,-0.023168,-0.007465,rest
-0.025437,-0.124196,0.97905,0.030548,-0.027115,-0.006092,rest
-0.026169,-0.123647,0.978745,0.034237,-0.025657,-0.005063,rest
-0.025315,-0.12505,0.978684,0.025657,-0.025228,-0.007208,rest
-0.027206,-0.124501,0.977891,0.030204,-0.025914,-0.007465,rest
-0.025864,-0.124501,0.978318,0.02231,-0.023254,-0.005148,rest
-0.02745,-0.124623,0.977525,0.022053,-0.02231,-0.003175,rest
-0.025742,-0.124684,0.978013,0.000429,-0.02394,-0.006865,rest
-0.027816,-0.124257,0.977769,0.012871,-0.025313,-0.003089,rest
-0.025071,-0.124257,0.978562,0.016218,-0.023168,-0.007122,rest
-0.026169,-0.124501,0.978135,0.025399,-0.023254,-0.005234,rest
-0.02623,-0.124318,0.979477,0.030977,-0.043591,-0.008238,rest
-0.025742,-0.124257,0.979721,0.025228,-0.021624,-0.006178,rest
-0.028426,-0.124684,0.979355,0.014502,-0.019049,-0.002488,rest
-0.025986,-0.125782,0.979355,0.027115,-0.024799,-0.004119,rest
-0.027328,-0.124928,0.979294,0.030805,-0.024455,-0.003175,rest
-0.024949,-0.125782,0.97966,0.028231,-0.024455,-0.004977,rest
-0.025742,-0.12444,0.978989,0.047195,-0.024112,-0.005578,rest
-0.02562,-0.124196,0.979355,0.03235,-0.025142,-0.004891,rest
-0.025254,-0.126087,0.979172,0.001716,-0.020508,-0.009267,rest
-0.025315,-0.123952,0.979233,0.049254,-0.026429,-0.003604,rest
-0.025742,-0.126575,0.977891,0.017848,-0.023082,-0.008495,rest
-0.025376,-0.125599,0.976915,0.035353,-0.022396,-0.008752,rest
-0.026169,-0.125233,0.977281,0.024198,-0.024884,-0.004462,rest
-0.02623,-0.12688,0.97722,0.009954,-0.023082,-0.002917,rest
-0.027328,-0.125965,0.977098,0.030548,-0.023855,-0.001545,rest
-0.026291,-0.126026,0.976305,0.013386,-0.019736,-0.004634,rest
-0.025742,-0.125904,0.975817,0.040072,-0.025828,-0.003261,rest
-0.024888,-0.125843,0.975878,0.030891,-0.024198,-0.004719,rest
-0.026108,-0.125965,0.975573,0.017333,-0.001545,-0.006264,rest
-0.0244,-0.126209,0.975878,0.0133,-0.023597,-0.008066,rest
-0.026352,-0.125416,0.980392,0.017762,-0.043934,-0.004376,rest
-0.028365,-0.125172,0.980087,0.020851,-0.02128,-0.00369,rest
-0.025742,-0.125721,0.980819,0.008495,-0.023769,-0.004634,rest
-0.026535,-0.125111,0.980514,0.006607,-0.023597,-0.007637,rest
-0.025803,-0.124989,0.980514,0.031835,-0.023683,-0.006521,rest
-0.026108,-0.125599,0.98027,0.043419,-0.02437,-0.006092,rest
-0.026962,-0.126209,0.980087,0.015789,-0.043333,-0.004891,rest
-0.025559,-0.126575,0.980453,0.020079,-0.022396,-0.006607,rest
-0.026474,-0.124257,0.979843,0.034066,-0.022482,-0.003776,rest
-0.025071,-0.126392,0.97966,0.022053,-0.023597,-0.005406,rest
-0.02562,-0.126148,0.976915,0.01699,-0.02497,-0.005406,rest
-0.026413,-0.126819,0.97722,0.026858,-0.025657,-0.004719,rest
-0.02501,-0.126819,0.977952,0.028403,-0.025056,-0.008238,rest
-0.027023,-0.126575,0.977464,0.038442,-0.026944,-0.006521,rest
-0.026413,-0.125965,0.977891,0.029261,-0.023855,-0.003432,rest
-0.027145,-0.126514,0.977159,0.017419,-0.001716,-0.007723,rest
-0.025559,-0.127063,0.97661,0.052515,-0.024627,-0.007036,rest
-0.027267,-0.125233,0.976366,0.052086,-0.025228,-0.004205,rest
-0.02562,-0.127185,0.976122,0.031749,-0.024884,-0.008238,rest
-0.025864,-0.126514,0.975878,0.037155,-0.02437,-0.007637,rest
-0.027999,-0.124196,0.977525,0.032264,-0.027287,-0.001974,rest
-0.026535,-0.124501,0.979111,0.014416,-0.023597,-0.003861,rest
-0.027206,-0.127429,0.978928,0.006779,-0.001287,-0.005835,rest
-0.023546,-0.125782,0.979904,0.004805,-0.020337,-0.00532,rest
-0.026413,-0.126514,0.979538,0.014416,-0.025228,-0.009096,rest
-0.026901,-0.140544,0.980087,0.018449,-0.023426,-0.004205,rest
-0.025803,-0.126026,0.979477,0.016904,-0.024026,-0.00635,rest
-0.026047,-0.124989,0.979233,0.035267,-0.025914,-0.003347,rest
-0.025193,-0.140544,0.979477,0.030033,-0.023769,-0.007465,rest
-0.025742,-0.125477,0.978745,0.01965,-0.023254,-0.00532,rest
-0.024766,-0.125721,0.977098,0.023597,-0.024198,-0.009611,rest
-0.02562,-0.124135,0.977708,0.027115,-0.025313,-0.004376,rest
-0.026352,-0.124684,0.977891,0.01167,-0.02334,-0.00369,rest
-0.024461,-0.126392,0.978318,0.015789,-0.021709,-0.006092,rest
-0.02562,-0.125294,0.977647,0.021109,-0.022568,-0.008152,rest
-0.024705,-0.124318,0.977647,0.046251,-0.025485,-0.006264,rest
-0.025254,-0.124806,0.976915,0.037584,-0.026086,-0.003861,rest
-0.024644,-0.124562,0.976915,0.029261,-0.024026,-0.005063,rest
-0.025376,-0.125965,0.976122,0.011927,-0.020165,-0.005492,rest
-0.02562,-0.125538,0.976122,0.015617,-0.042904,-0.003003,rest
-0.024827,-0.122976,0.980026,0.035868,-0.027716,-0.005234,rest
-0.025559,-0.124135,0.980209,0.02394,-0.024627,-0.004891,rest
-0.024095,-0.125477,0.979477,0.029089,-0.023254,-0.005921,rest
-0.026657,-0.123403,0.979599,0.048825,-0.028145,-0.002917,rest
-0.024461,-0.12566,0.979965,0.020079,-0.024026,-0.006264,rest
-0.026779,-0.124867,0.979965,0.024713,-0.025485,-0.004977,rest
-0.024461,-0.125599,0.980453,0.021366,-0.02334,-0.007723,rest
-0.026474,-0.124562,0.980453,0.025228,-0.026,-0.006092,rest
-0.024339,-0.124562,0.981612,0.021195,-0.043848,-0.00695,rest
-0.026962,-0.123647,0.981002,0.028145,-0.022911,-0.005063,rest
-0.023607,-0.129259,0.979538,0.029003,-0.023082,-0.004805,rest
-0.025315,-0.126758,0.979721,0.055861,-0.027201,-0.002403,rest
-0.024156,-0.127856,0.97905,0.034323,-0.025828,-0.008066,rest
-0.024217,-0.127246,0.979965,0.010297,-0.023597,-0.006521,rest
-0.024705,-0.128161,0.979721,0.021452,-0.022053,-0.005406,rest
-0.024888,-0.127002,0.979721,0.027888,-0.024112,-0.006264,rest
-0.0244,-0.128344,0.979355,0.032092,-0.022825,-0.008323,rest
-0.026352,-0.126026,0.979294,0.038099,-0.027115,-0.003604,rest
-0.025132,-0.128832,0.979477,0.006521,-0.022911,-0.001545,rest
-0.024522,-0.128527,0.978684,0.034838,-0.024884,-0.004805,rest
-0.025315,-0.132614,0.97966,0.024799,-0.024884,-0.003518,rest
-0.024217,-0.131455,0.980514,0.031063,-0.025142,-0.003947,rest
-0.024705,-0.130967,0.979721,0.038785,-0.025142,-0.005234,rest
-0.024766,-0.130235,0.980087,0.038099,-0.025571,-0.005063,rest
-0.025071,-0.131516,0.980575,0.022568,-0.025657,-0.004634,rest
-0.025559,-0.13237,0.979904,0.027802,-0.024884,-0.002059,rest
-0.024522,-0.131089,0.980575,0.035696,-0.025828,-0.008066,rest
-0.024644,-0.131394,0.980453,0.001888,-0.024198,-0.004805,rest
-0.024644,-0.130845,0.980087,0.018191,-0.025485,-0.004977,rest
-0.025986,-0.130296,0.979538,0.015617,-0.026515,-0.001545,rest
-0.025803,-0.130235,0.978623,0.021195,-0.024026,-0.003432,rest
-0.02562,-0.132126,0.978745,-0.015531,-0.019049,-0.004719,rest
-0.025925,-0.131638,0.978806,0.003518,-0.024799,-0.004805,rest
-0.025498,-0.130723,0.978623,0.017247,-0.02334,-0.005921,rest
-0.026108,-0.130784,0.978074,0.028574,-0.027973,-0.005921,rest
-0.027877,-0.132858,0.977281,0.052171,-0.024884,-0.001287,rest
-0.025437,-0.13176,0.978074,0.020851,-0.043762,-0.00532,rest
-0.024888,-0.131638,0.977464,0.016389,-0.026171,-0.006865,rest
-0.026291,-0.131028,0.976915,0.022482,-0.024627,-0.004205,rest
-0.025742,-0.130601,0.97661,0.013558,-0.02334,-0.004719,rest
-0.024156,-0.13054,0.978623,0.058178,-0.027459,-0.007894,rest
-0.025742,-0.130845,0.978745,0.034495,-0.022396,-0.003604,rest
-0.024522,-0.132187,0.97844,0.03501,-0.023511,-0.006521,rest
-0.026352,-0.129991,0.978623,0.041874,-0.027888,-0.005492,rest
-0.024644,-0.130479,0.979111,0.011927,-0.000086,-0.009525,rest
-0.027206,-0.131394,0.979538,0.020766,-0.024112,-0.002317,rest
-0.025437,-0.131577,0.979599,0.006693,-0.023511,-0.002917,rest
-0.026474,-0.131638,0.979538,0.018964,-0.043419,-0.003604,rest
-0.026596,-0.131821,0.979233,0.039129,-0.026086,-0.005234,rest
-0.025071,-0.129137,0.980941,0.036812,-0.029003,-0.009782,rest
-0.025559,-0.132919,0.977464,0.040845,-0.025657,-0.009954,rest
-0.026169,-0.132309,0.977647,0.045993,-0.02703,-0.006521,rest
-0.025254,-0.13298,0.978135,0.028317,-0.025485,-0.007637,rest
-0.026962,-0.133041,0.978562,0.017676,-0.024198,-0.004634,rest
-0.028243,-0.133285,0.978562,0.01965,-0.023426,-0.001888,rest
-0.026352,-0.133041,0.978013,0.043676,-0.043762,-0.005921,rest
-0.02684,-0.132553,0.978257,0.00103,-0.020422,-0.001802,rest
-0.026962,-0.135054,0.978074,-0.00901,-0.021709,-0.006693,rest
-0.026657,-0.132614,0.978501,0.045736,-0.026343,-0.005063,rest
-0.027328,-0.131821,0.977952,0.049254,-0.024198,-0.010726,rest
-0.025864,-0.133102,0.979721,0.002059,-0.023511,-0.00103,rest
-0.026901,-0.132065,0.979233,0.028488,-0.002746,-0.003947,rest
-0.026596,-0.13054,0.979965,0.04299,-0.025142,-0.005234,rest
-0.024461,-0.133651,0.979355,0.038013,-0.02497,-0.005148,rest
-0.028304,-0.129198,0.979965,0.038957,-0.02703,-0.001287,rest
-0.026352,-0.131699,0.980331,0.010554,-0.025485,-0.006865,rest
-0.026901,-0.131394,0.979965,0.027544,-0.043591,-0.005148,rest
-0.026413,-0.131333,0.98027,0.031749,-0.023082,-0.004205,rest
-0.025742,-0.130906,0.980209,0.028746,-0.02497,-0.006865,rest
-0.025315,-0.132126,0.980087,0.025828,-0.024799,-0.007208,rest
-0.027206,-0.130479,0.979904,0.026601,-0.025828,-0.007122,rest
-0.025986,-0.133285,0.979599,0.017591,-0.022482,-0.006264,rest
-0.027328,-0.132065,0.979355,0.028574,-0.023426,-0.005063,rest
-0.026352,-0.131638,0.979904,0.040931,-0.024112,-0.005835,rest
-0.026291,-0.131638,0.979843,0.03501,-0.024627,-0.008581,rest
-0.026047,-0.132492,0.979904,0.034838,-0.02334,-0.005148,rest
-0.026169,-0.132126,0.980209,0.00163,-0.024884,-0.007894,rest
-0.026047,-0.132614,0.980392,0.015703,-0.02334,-0.006178,rest
-0.025986,-0.133163,0.980819,0.02068,-0.021967,-0.003947,rest
-0.026474,-0.132126,0.979965,0.065643,-0.023082,-0.00695,rest
-0.026291,-0.132492,0.977769,0.019822,-0.022139,-0.007809,rest
-0.025254,-0.13237,0.978562,0.001116,-0.02437,-0.009096,rest
-0.027938,-0.132187,0.977952,0.019564,-0.022482,-0.003175,rest
-0.026657,-0.132858,0.977891,0.024112,-0.02437,-0.003175,rest
-0.026413,-0.133651,0.978196,0.029346,-0.023511,-0.007809,rest
-0.026596,-0.132919,0.97783,0.049597,-0.026686,-0.004805,rest
-0.026169,-0.131821,0.978196,0.031577,-0.026429,-0.005921,rest
-0.027084,-0.133224,0.978196,0.019822,-0.022997,-0.00738,rest
-0.027023,-0.132614,0.978623,0.026944,-0.023855,-0.004634,rest
-0.027328,-0.133041,0.97844,0.025485,-0.02231,-0.006092,rest
-0.026291,-0.131821,0.979111,0.013386,-0.023426,-0.007894,rest
-0.026962,-0.132797,0.978928,0.023082,-0.024799,-0.00738,rest
-0.027328,-0.129015,0.978623,0.050798,-0.027973,-0.003089,rest
-0.025925,-0.132248,0.978318,-0.00266,-0.024026,-0.002488,rest
-0.022021,-0.14335,0.97539,0.05629,-0.021366,-0.017247,rest
-0.024217,-0.12383,0.978623,0.159432,-0.022139,-0.011756,rest
-0.027572,-0.131882,0.976732,0.062468,-0.023254,-0.005663,rest
-0.027206,-0.134505,0.977525,0.014587,-0.042132,-0.007122,rest
-0.025742,-0.129503,0.978318,0.054488,-0.025313,-0.007036,rest
-0.02745,-0.130052,0.978318,0.051056,-0.027459,-0.005492,rest
-0.027267,-0.131333,0.977098,0.025228,-0.023082,-0.006779,rest
-0.027023,-0.132736,0.977281,0.025142,-0.043505,-0.009096,rest
-0.027572,-0.132492,0.976732,0.040587,-0.022396,-0.004205,rest
-0.027694,-0.132675,0.976915,0.039987,-0.024198,-0.004719,rest
-0.027023,-0.133041,0.977159,0.028574,-0.024284,-0.00635,rest
-0.026779,-0.134017,0.976976,0.020251,-0.019993,-0.005234,rest
-0.027084,-0.133956,0.976854,0.032006,-0.043934,-0.005406,rest
-0.027145,-0.13359,0.977098,0.033379,-0.02437,-0.00635,rest
-0.026962,-0.133529,0.976854,0.03235,-0.000515,-0.00901,rest
-0.02684,-0.133285,0.976793,0.018191,-0.001888,-0.008409,rest
-0.026474,-0.13237,0.975451,0.034581,-0.026257,-0.004719,rest
-0.027145,-0.132309,0.974719,0.022139,-0.024799,-0.004805,rest
-0.025376,-0.134078,0.976,0.007551,-0.020937,-0.010211,rest
-0.026962,-0.130601,0.976427,0.022053,-0.028145,-0.007036,rest
-0.025254,-0.132309,0.976915,0.004548,-0.023082,-0.003604,rest
-0.02684,-0.133285,0.977037,0.02068,-0.024026,-0.007036,rest
-0.026596,-0.131516,0.977037,0.04299,-0.028403,-0.005406,rest
-0.027084,-0.132675,0.977464,0.030977,-0.026429,-0.007894,rest
-0.027999,-0.13115,0.977586,0.020851,-0.026944,-0.003261,rest
-0.027938,-0.13481,0.977647,0.016132,-0.020594,-0.007894,rest
-0.027877,-0.133651,0.97661,0.028917,-0.02497,-0.005063,rest
-0.027755,-0.134871,0.976427,0.027888,-0.043591,-0.005492,rest
-0.027511,-0.134322,0.976488,0.03029,-0.024713,-0.00532,rest
-0.027694,-0.134444,0.97661,0.025142,-0.022997,-0.004891,rest
-0.028365,-0.134383,0.977098,0.014587,-0.02437,-0.004033,rest
-0.027877,-0.135176,0.977342,0.009954,-0.02231,-0.003861,rest
-0.028243,-0.135176,0.976915,0.023683,-0.024541,-0.004634,rest
-0.027633,-0.134505,0.977159,0.039214,-0.026343,-0.006007,rest
-0.028304,-0.133834,0.977281,0.028917,-0.023597,-0.006007,rest
-0.02806,-0.134932,0.977342,0.016475,-0.020079,-0.004376,rest
-0.028243,-0.134322,0.976671,0.029947,-0.022739,-0.004376,rest
-0.028243,-0.1342,0.97722,0.028059,-0.023769,-0.004805,rest
-0.028121,-0.133773,0.977342,0.025056,-0.02394,-0.004462,rest
-0.027999,-0.134139,0.976976,0.022825,-0.043591,-0.006436,rest
-0.027328,-0.134017,0.977281,0.021366,-0.02394,-0.005663,rest
-0.02745,-0.134505,0.976854,0.025657,-0.022396,-0.008752,rest
-0.028548,-0.133651,0.977098,0.03295,-0.002145,-0.003089,rest
-0.027816,-0.134627,0.977159,0.02068,-0.023254,-0.004805,rest
-0.027389,-0.134261,0.976671,0.029261,-0.024198,-0.007809,rest
-0.027389,-0.133834,0.977098,0.022568,-0.025228,-0.005492,rest
-0.028365,-0.134383,0.97722,0.027373,-0.02231,-0.006607,rest
-0.028121,-0.133956,0.977586,0.034752,-0.024026,-0.005749,rest
-0.028243,-0.134749,0.977586,0.022224,-0.024026,-0.006436,rest
-0.028365,-0.134627,0.977769,0.025056,-0.02394,-0.005492,rest
-0.028426,-0.134078,0.978257,0.029861,-0.023855,-0.000944,rest
-0.027816,-0.134871,0.978684,0.021967,-0.024713,-0.006779,rest
-0.028792,-0.134932,0.978623,0.024627,-0.00163,-0.002832,rest
-0.028792,-0.134993,0.978806,0.032435,-0.022825,-0.002746,rest
-0.027755,-0.135481,0.978745,0.020937,-0.022139,-0.005234,rest
-0.028243,-0.134322,0.979294,0.033294,-0.025142,-0.003947,rest
-0.021594,-0.11468,0.97844,0.022224,-0.024198,-0.007036,rest
-0.022509,-0.11407,0.978257,0.02128,-0.00103,-0.006521,rest
-0.022387,-0.113887,0.978501,0.028317,-0.024627,-0.004205,rest
-0.022143,-0.115168,0.978989,0.016132,-0.023769,-0.006607,rest
-0.022387,-0.115412,0.978318,0.027802,-0.021624,-0.005921,rest
-0.022387,-0.116144,0.978806,0.034066,-0.023168,-0.005663,rest
-0.022326,-0.116388,0.97905,0.035181,-0.026257,-0.006178,rest
-0.021472,-0.116876,0.97905,0.064356,-0.026515,-0.006264,rest
-0.021411,-0.116449,0.978989,0.045564,-0.028488,-0.004977,rest
-0.022021,-0.117547,0.979111,0.025142,-0.001545,-0.006693,rest
-0.022631,-0.115717,0.98088,0.013901,-0.022568,-0.002488,rest
-0.022692,-0.119682,0.979599,-0.009267,-0.018878,-0.005234,rest
-0.02257,-0.116693,0.979233,0.041874,-0.025657,-0.007208,rest
-0.025742,-0.117791,0.971303,0.001545,-0.013815,-0.004548,rest
-0.024156,-0.120841,0.978684,0.05097,-0.026515,-0.00163,rest
-0.02257,-0.114558,0.97966,0.08332,-0.034409,-0.006693,rest
-0.02196,-0.118523,0.97905,0.029089,-0.02231,-0.006693,rest
-0.021899,-0.116876,0.979416,0.027287,-0.024198,-0.005063,rest
-0.022692,-0.116388,0.978928,0.042732,-0.026515,-0.005063,rest
-0.024217,-0.116754,0.97905,0.014244,-0.022825,-0.001802,rest
-0.019947,-0.116266,0.979111,0.049254,-0.028832,-0.009439,rest
-0.020496,-0.11651,0.97966,0.015703,-0.022568,-0.006779,rest
-0.021899,-0.117791,0.978867,0.031148,-0.023254,-0.005578,rest
-0.02196,-0.116571,0.979233,0.036812,-0.025742,-0.00635,rest
-0.022936,-0.116693,0.979355,0,-0.022224,-0.003776,rest
-0.022448,-0.117059,0.979172,0.010812,-0.020079,-0.003776,rest
-0.022326,-0.117669,0.978806,0.015531,-0.043934,-0.004205,rest
-0.02257,-0.116998,0.97905,0.024541,-0.001802,-0.005663,rest
-0.021594,-0.118157,0.979233,0.023426,-0.025399,-0.006436,rest
-0.021899,-0.117425,0.979233,0.026944,-0.024112,-0.004462,rest
-0.022265,-0.117913,0.977403,0.026772,-0.024284,-0.008409,rest
-0.022326,-0.117974,0.977159,0.038099,-0.02437,-0.008581,rest
-0.025071,-0.123586,0.97722,0.042046,-0.037412,-0.073023,rest
-0.021594,-0.10797,0.977891,0.108633,-0.031234,-0.005578,rest
-0.021777,-0.116266,0.977952,0.00103,-0.020851,-0.00532,rest
-0.021838,-0.11407,0.978379,0.034495,-0.028917,-0.004891,rest
-0.02135,-0.113216,0.978562,0.038356,-0.024112,-0.004977,rest
-0.021899,-0.114192,0.978745,0.021967,-0.022911,-0.006092,rest
-0.022204,-0.114802,0.978562,0.011412,-0.000172,-0.005663,rest
-0.021777,-0.114436,0.978745,0.027287,-0.024713,-0.007723,rest
-0.022509,-0.112606,0.97783,0.000686,-0.024713,-0.005063,rest
-0.022265,-0.110959,0.978379,0.023597,-0.023082,-0.003947,rest
-0.022936,-0.112118,0.97844,0.01965,-0.024284,-0.004805,rest
-0.02257,-0.110593,0.977952,0.034924,-0.026429,-0.005063,rest
-0.02318,-0.110898,0.977769,0.022653,-0.023855,-0.004376,rest
-0.022143,-0.112484,0.977647,0.016647,-0.021967,-0.005663,rest
-0.022997,-0.111752,0.977891,0.000858,-0.023168,-0.007208,rest
-0.022265,-0.11163,0.978013,0.024026,-0.022825,-0.00695,rest
-0.02257,-0.110776,0.978135,0.038528,-0.026086,-0.006779,rest
-0.022509,-0.11102,0.978501,0.026944,-0.024284,-0.005406,rest
-0.023668,-0.109251,0.981307,0.046165,-0.025485,-0.005663,rest
-0.023241,-0.10736,0.981795,0.048396,-0.027459,-0.006607,rest
-0.022387,-0.110288,0.981612,0.017848,-0.021795,-0.006178,rest
-0.022143,-0.109556,0.9821,0.014416,-0.022739,-0.005234,rest
-0.024766,-0.112118,0.981368,-0.023769,-0.012614,0.013815,rest
-0.022509,-0.107604,0.980941,0.038699,-0.025828,-0.007551,rest
-0.022631,-0.106323,0.981002,0.057148,-0.028574,-0.007551,rest
-0.022143,-0.108092,0.981185,0.000686,-0.02334,-0.008152,rest
-0.023912,-0.10858,0.981063,0.008409,-0.043333,-0.003432,rest
-0.023058,-0.107787,0.980575,0.013558,-0.020851,-0.003604,rest
-0.025681,-0.096685,0.98759,0.037412,-0.029175,0.021538,rest
-0.022936,-0.093269,0.981368,0.045564,-0.026086,-0.004719,rest
-0.021167,-0.095953,0.982039,-0.004376,-0.022139,-0.00429,rest
-0.022143,-0.094184,0.982527,0.03235,-0.029518,0.000429,rest
-0.020618,-0.093208,0.982771,0.018535,-0.024799,-0.01004,rest
-0.021472,-0.093086,0.982893,0.001116,-0.026171,-0.004462,rest
-0.022265,-0.094062,0.982222,-0.015102,-0.019049,-0.001974,rest
-0.020252,-0.09333,0.982039,0.002403,-0.022997,-0.006178,rest
-0.023851,-0.091683,0.98149,0.013129,-0.000601,-0.005749,rest
-0.023119,-0.092232,0.98271,-0.006178,-0.000772,-0.00369,rest
-0.023973,-0.084424,0.983198,0.002403,-0.017591,-0.004462,rest
-0.024827,-0.085827,0.983015,0.012871,-0.043762,-0.002832,rest
-0.023607,-0.086376,0.982649,0.019822,-0.022568,-0.004977,rest
-0.023607,-0.085644,0.983564,0.038957,-0.023855,-0.004033,rest
-0.022448,-0.08601,0.982405,0.023511,-0.027459,-0.00635,rest
-0.023058,-0.086437,0.982527,0.023426,-0.022053,-0.005234,rest
-0.022021,-0.086498,0.982588,0.016561,-0.019478,-0.003776,rest
-0.02318,-0.086315,0.982222,0.014931,-0.000172,-0.003003,rest
-0.022082,-0.086437,0.982527,0.003604,-0.02437,-0.002746,rest
-0.022997,-0.087108,0.982588,-0.003261,-0.020422,-0.003604,rest
-0.023851,-0.082167,0.983625,0.017591,-0.020937,-0.001888,rest
-0.023363,-0.082655,0.983503,0.025828,-0.025228,-0.00695,rest
-0.02318,-0.082228,0.98332,0.031148,-0.024455,-0.004033,rest
-0.022021,-0.081496,0.983381,0.007723,-0.024455,-0.004205,rest
-0.023058,-0.081984,0.983381,0.020851,-0.022653,-0.005578,rest
-0.023241,-0.081862,0.983198,0.018449,-0.02394,-0.007723,rest
-0.022997,-0.081679,0.982954,0.03398,-0.025228,-0.010297,rest
-0.022631,-0.079361,0.983442,0.040244,-0.026086,-0.010211,rest
-0.023912,-0.08052,0.983198,0.032435,-0.024198,-0.003089,rest
-0.022936,-0.079849,0.982954,0.020337,-0.022568,-0.003861,rest
-0.02135,-0.078263,0.984235,0.025914,-0.024284,-0.008323,rest
-0.023729,-0.076433,0.999363,0.028574,-0.043848,-0.005749,rest
-0.022082,-0.076982,0.984418,0.024884,-0.043676,-0.003776,rest
-0.02318,-0.077592,0.983747,0.010983,-0.042647,-0.00429,rest
-0.023668,-0.078507,0.983259,0.01167,-0.018191,-0.004719,rest
-0.021533,-0.077653,0.983198,0.033808,-0.024627,-0.007551,rest
-0.023851,-0.076494,0.982527,0.052429,-0.026343,-0.006264,rest
-0.022265,-0.077287,0.982832,0.039729,-0.024541,-0.005406,rest
-0.022692,-0.078934,0.982344,0.030634,-0.024627,-0.006092,rest
-0.024339,-0.07747,0.981795,0.025914,-0.020766,-0.004033,rest
-0.0244,-0.072651,0.984113,0.029432,-0.000686,-0.004376,rest
-0.021716,-0.073444,0.984723,0.028403,-0.02334,-0.007208,rest
-0.023424,-0.072834,0.98454,0.029089,-0.043591,-0.005406,rest
-0.02379,-0.072651,0.984296,0.026601,-0.022825,-0.006178,rest
-0.021533,-0.072956,0.984845,0.032693,-0.026343,-0.00738,rest
-0.024583,-0.0732,0.984113,0.019822,-0.024026,-0.006007,rest
-0.021533,-0.072224,0.984845,0.019564,-0.024026,-0.00635,rest
-0.022204,-0.072895,0.983869,0.016046,-0.024799,-0.005663,rest
-0.024522,-0.072285,0.983259,0.023511,-0.023855,-0.004719,rest
-0.020313,-0.072956,0.968192,0.034752,-0.028145,-0.006092,rest
-0.022753,-0.063989,0.982649,0.00901,-0.021624,-0.004805,rest
-0.01891,-0.06161,0.982527,0.022653,-0.024541,-0.005492,rest
-0.022448,-0.063196,0.9821,0.006607,-0.020766,-0.002917,rest
-0.02135,-0.062647,0.982649,0.003089,-0.018535,-0.002231,rest
-0.019154,-0.049715,0.981978,-0.051142,-0.018106,-0.004634,rest
-0.019764,-0.043066,0.982832,0.031406,-0.023168,-0.004119,rest
-0.015799,-0.04026,0.98393,0.047109,-0.027544,-0.007036,rest
-0.019093,-0.041724,0.983259,0.009439,-0.018706,-0.002574,rest
-0.01647,-0.040382,0.983686,0.034667,-0.027973,-0.004548,rest
-0.019154,-0.043127,0.983747,0.043333,-0.030805,-0.007809,rest
-0.021655,-0.040382,0.986736,0.029775,-0.02497,-0.003261,rest
-0.020496,-0.040626,0.986187,0.043762,-0.026601,-0.00532,rest
-0.019886,-0.042944,0.985638,0.029775,-0.028317,-0.010554,rest
-0.020374,-0.042273,0.985821,0.037756,-0.026858,-0.008152,rest
-0.02013,-0.042029,0.985516,0.026515,-0.026171,-0.008066,rest
-0.020923,-0.042578,0.985577,0.021366,-0.025571,-0.007723,rest
-0.02196,-0.042395,0.985455,0.020165,-0.02394,-0.005063,rest
-0.022814,-0.043249,0.985272,0.035525,-0.026601,-0.00532,rest
-0.021838,-0.043554,0.98515,0.044191,-0.02334,-0.004462,rest
-0.021838,-0.04514,0.985333,0.034581,-0.023855,-0.007465,rest
-0.022387,-0.045567,0.984357,0.025142,-0.022911,-0.003261,rest
-0.022814,-0.045201,0.984235,0.024455,-0.023769,-0.006779,rest
-0.022021,-0.043493,0.985089,0.023426,-0.022739,-0.004033,rest
-0.024827,-0.044652,0.984357,0.012957,-0.022825,-0.000944,rest
-0.024339,-0.045323,0.984784,0.029003,-0.022825,-0.00429,rest
-0.02318,-0.044652,0.984723,0.037584,-0.023511,-0.00738,rest
-0.023119,-0.045384,0.98454,0.03827,-0.024713,-0.00738,rest
-0.023424,-0.045018,0.984784,0.003347,-0.024713,-0.006007,rest
-0.023546,-0.045445,0.985455,0.018878,-0.025742,-0.00532,rest
-0.024339,-0.045811,0.98515,0.017505,-0.023254,-0.007723,rest
-0.025681,-0.044347,0.984601,0.020508,-0.022825,-0.004548,rest
-0.025132,-0.044408,0.984784,0.027716,-0.024541,-0.004119,rest
-0.025193,-0.044469,0.984845,0.03132,-0.022997,-0.004548,rest
-0.025742,-0.044042,0.984967,0.027201,-0.022825,-0.003261,rest
-0.025498,-0.045201,0.985333,0.025399,-0.022653,-0.004548,rest
-0.024461,-0.04514,0.985272,0.001545,-0.020766,-0.005663,rest
-0.02501,-0.044774,0.985394,0.02068,-0.025399,-0.006007,rest
-0.025437,-0.04514,0.98576,0.016561,-0.022997,-0.003261,rest
-0.025071,-0.045262,0.985394,0.027888,-0.02497,-0.006521,rest
-0.025254,-0.045018,0.985699,0.034066,-0.024541,-0.004462,rest
-0.020008,-0.014579,0.981978,0.024799,-0.025828,-0.005492,rest
-0.02013,-0.014518,0.982222,0.018277,-0.000772,-0.004977,rest
-0.020557,-0.014823,0.981856,0.015274,-0.026171,-0.004805,rest
-0.021106,-0.013847,0.981978,0.03767,-0.025828,-0.005921,rest
-0.020374,-0.013176,0.981795,0.027115,-0.026086,-0.007208,rest
-0.020557,-0.013298,0.9821,0.019307,-0.021881,-0.006607,rest
-0.02013,-0.012932,0.982832,0.02437,-0.022825,-0.006178,rest
-0.021045,-0.013237,0.982893,0.033465,-0.024713,-0.006607,rest
-0.020923,-0.01281,0.983564,0.035696,-0.02763,-0.007122,rest
-0.021472,-0.012871,0.983747,0.025399,-0.024627,-0.006007,rest
-0.022875,-0.016226,0.984296,0.03398,-0.02437,-0.004548,rest
-0.02257,-0.015677,0.984113,0.025914,-0.043505,-0.004119,rest
-0.022082,-0.016104,0.984418,0.02128,-0.026343,-0.006007,rest
-0.022265,-0.015677,0.984662,0.015875,-0.021538,-0.004205,rest
-0.022997,-0.015494,0.984784,0.016304,-0.023855,-0.003861,rest
-0.023607,-0.016592,0.985028,0.027716,-0.000429,-0.003432,rest
-0.022265,-0.015555,0.984845,0.040244,-0.026515,-0.005234,rest
-0.022082,-0.015738,0.985028,0.023426,-0.024713,-0.006521,rest
-0.022753,-0.016165,0.985455,0.014244,-0.024284,-0.003175,rest
-0.023241,-0.016043,0.985455,0.015445,-0.023082,-0.00695,rest
-0.023424,-0.018178,0.984479,0.021366,-0.022739,-0.005835,rest
-0.022997,-0.017141,0.984479,0.030977,-0.025228,-0.008238,rest
-0.023241,-0.016653,0.984235,0.01965,-0.021709,-0.004634,rest
-0.024522,-0.017141,0.983747,0.014931,-0.024541,-0.00369,rest
-0.024095,-0.017385,0.983625,0.02231,-0.023855,-0.00266,rest
-0.024461,-0.016897,0.983442,0.039214,-0.024112,-0.002145,rest
-0.022326,-0.016958,0.983076,0.032178,-0.026772,-0.00532,rest
-0.023119,-0.017141,0.982954,0.005921,-0.023254,-0.007894,rest
-0.025132,-0.015189,0.982954,0.027973,-0.031406,0.000686,rest
-0.021716,-0.019093,0.981856,0.062897,-0.023855,-0.006607,rest
-0.025986,-0.019642,0.982344,0.036383,-0.023769,-0.005492,rest
-0.025803,-0.02074,0.982588,0.023769,-0.027973,-0.007723,rest
-0.024888,-0.020374,0.983015,0.000686,-0.023855,-0.009868,rest
-0.027938,-0.019459,0.983198,0.014502,-0.021109,-0.004033,rest
-0.028304,-0.019886,0.98271,0.020251,-0.02437,-0.003261,rest
-0.027755,-0.019703,0.982649,0.02969,-0.023855,-0.004033,rest
-0.026657,-0.020191,0.982344,0.027459,-0.023254,-0.00429,rest
-0.025498,-0.021167,0.982222,0.025485,-0.026171,-0.008152,rest
-0.026108,-0.020862,0.981429,0.031921,-0.025657,-0.00695,rest
-0.026413,-0.020618,0.981612,0.024284,-0.02437,-0.006178,rest
-0.028609,-0.02074,0.983381,0.020251,-0.000257,-0.004376,rest
-0.027755,-0.020984,0.983503,0.022911,-0.043934,-0.004719,rest
-0.027694,-0.020374,0.983503,0.014673,-0.021624,-0.004977,rest
-0.027938,-0.020679,0.98393,0.017934,-0.001116,-0.004805,rest
-0.027999,-0.020923,0.983686,0.029175,-0.022997,-0.005749,rest
-0.026474,-0.021716,0.98393,0.015445,-0.042904,-0.006521,rest
-0.025925,-0.020984,0.983808,0.017934,-0.024026,-0.008838,rest
-0.028182,-0.020374,0.983869,0.004977,-0.000601,-0.003089,rest
-0.026962,-0.019093,0.983503,0.030462,-0.025571,-0.007723,rest
-0.025132,-0.019886,0.98393,0.051399,-0.029518,-0.008838,rest
-0.030195,-0.018971,0.983991,0.026515,-0.028574,-0.004719,rest
-0.029158,-0.019215,0.984296,0.022653,-0.043076,-0.001459,rest
-0.030195,-0.018605,0.984174,0.030805,-0.026257,-0.001716,rest
-0.030866,-0.020313,0.984418,0.067874,-0.034323,0.021795,rest
-0.030378,-0.020191,0.984723,0.060495,-0.027802,-0.004634,rest
-0.029768,-0.022448,0.984479,0.016389,-0.022224,-0.006436,rest
-0.029646,-0.023058,0.984418,0.012013,-0.021366,-0.00695,rest
-0.029951,-0.022997,0.984479,0.019908,-0.023769,-0.006436,rest
-0.030073,-0.022509,0.984418,0.023426,-0.026686,-0.005835,rest
-0.030744,-0.022448,0.984479,0.026257,-0.025228,-0.004119,rest
-0.030073,-0.023546,0.983747,0.026858,-0.025056,-0.007036,rest
-0.030805,-0.023546,0.98332,0.03295,-0.023511,-0.005663,rest
-0.030866,-0.023912,0.983198,0.03235,-0.023426,-0.004634,rest
-0.030134,-0.024217,0.983625,0.034838,-0.025485,-0.003175,rest
-0.030317,-0.023607,0.968192,0.033808,-0.025485,-0.004891,rest
-0.03111,-0.022997,0.98393,0.025828,-0.023168,-0.003175,rest
-0.03111,-0.023363,0.983991,0.018363,-0.022911,-0.003003,rest
-0.030744,-0.024095,0.984296,0.019564,-0.001287,-0.004462,rest
-0.03111,-0.024705,0.98393,0.028317,-0.042561,-0.005148,rest
-0.0305,-0.024278,0.983564,0.047881,-0.025313,-0.004033,rest
-0.030744,-0.023851,0.983564,0.033551,-0.024541,-0.00532,rest
-0.030805,-0.023363,0.983381,0.033294,-0.026171,-0.006436,rest
-0.031171,-0.024156,0.98332,0.038185,-0.026772,-0.006521,rest
-0.030805,-0.024095,0.98332,0.043247,-0.026171,-0.008495,rest
-0.030134,-0.024217,0.984113,0.025571,-0.024455,-0.006693,rest
-0.031049,-0.023668,0.984113,0.022139,-0.024884,-0.005749,rest
-0.030866,-0.023912,0.984235,0.03029,-0.022911,-0.005406,rest
-0.046848,-0.02379,0.984296,0.025571,-0.02394,-0.003432,rest
-0.030927,-0.024278,0.984235,0.031663,-0.024026,-0.006092,rest
-0.031232,-0.023851,0.984052,0.042218,-0.025056,-0.005492,rest
-0.031171,-0.024278,0.983686,0.026171,-0.002317,-0.006178,rest
-0.046848,-0.023485,0.983625,0.030548,-0.024541,-0.003604,rest
-0.031232,-0.02318,0.983625,0.032693,-0.024026,-0.006264,rest
-0.031476,-0.023241,0.983503,0.030891,-0.024026,-0.003089,rest
-0.031659,-0.023241,0.983686,0.016304,-0.023511,-0.004891,rest
-0.046848,-0.023546,0.983808,0.016132,-0.001716,-0.00635,rest
-0.031476,-0.023729,0.983869,0.020079,-0.025485,-0.007809,rest
-0.032147,-0.022753,0.984235,0.034323,-0.025657,-0.004033,rest
-0.030744,-0.023607,0.983991,0.036039,-0.025571,-0.006779,rest
-0.031293,-0.023058,0.983686,0.038185,-0.02497,-0.005492,rest
-0.031171,-0.022448,0.984113,0.023168,-0.025142,-0.006693,rest
-0.031049,-0.022997,0.98393,0.016218,-0.02334,-0.005921,rest
-0.031537,-0.02196,0.984296,0.028488,-0.025313,-0.004205,rest
-0.031781,-0.02196,0.984357,0.033894,-0.026601,-0.004205,rest
-0.032086,-0.022326,0.984662,0.027459,-0.025742,-0.003604,rest
-0.032086,-0.022082,0.984357,0.041531,-0.024112,-0.005063,rest
-0.032147,-0.022265,0.983869,0.032006,-0.022825,-0.00532,rest
-0.031354,-0.022326,0.983991,0.02763,-0.02231,-0.004891,rest
-0.031598,-0.022509,0.983625,0.028403,-0.000686,-0.005835,rest
-0.03172,-0.021838,0.982893,0.030891,-0.024713,-0.00429,rest
-0.031842,-0.019581,0.981612,0.042303,-0.025313,-0.003947,rest
-0.031903,-0.019947,0.981551,0.035096,-0.025313,-0.00738,rest
-0.032208,-0.020496,0.981429,0.034924,-0.026515,-0.005578,rest
-0.031964,-0.020069,0.98149,0.026086,-0.022911,-0.004119,rest
-0.032086,-0.020069,0.981734,0.03029,-0.025742,-0.004462,rest
-0.032025,-0.020008,0.981917,0.003089,-0.026515,-0.005234,rest
-0.031659,-0.020435,0.982222,0.001888,-0.021538,-0.004805,rest
-0.032513,-0.020435,0.982588,0.018106,-0.023168,-0.00635,rest
-0.03233,-0.020252,0.982649,0.020508,-0.022482,-0.007036,rest
-0.033001,-0.019459,0.982466,0.025828,-0.024799,-0.004376,rest
-0.031171,-0.021106,0.983381,0.000601,-0.02497,-0.006521,rest
-0.031232,-0.020801,0.98332,0.022482,-0.023082,-0.009267,rest
-0.031781,-0.020923,0.983137,0.030204,-0.025485,-0.005835,rest
-0.030988,-0.020557,0.983198,0.028059,-0.024541,-0.006436,rest
-0.03172,-0.021045,0.983381,0.029346,-0.02394,-0.005835,rest
-0.031842,-0.020984,0.983381,0.030119,-0.000858,-0.00635,rest
-0.032513,-0.020496,0.983503,0.032264,-0.02497,-0.003861,rest
-0.031476,-0.020435,0.983564,0.037927,-0.026086,-0.00532,rest
-0.033123,-0.021045,0.983991,0.024455,-0.043591,-0.000772,rest
-0.033245,-0.021655,0.984174,0.014845,-0.021795,-0.004205,rest
-0.031842,-0.020252,0.981795,0.038699,-0.025399,-0.00798,rest
-0.029524,-0.020557,0.982405,0.031148,-0.02437,-0.007809,rest
-0.032025,-0.019703,0.982466,0.024713,-0.024198,-0.005234,rest
-0.031903,-0.020252,0.982283,0.02497,-0.02437,-0.006264,rest
-0.03416,-0.022387,0.981429,0.00103,-0.022911,-0.004119,rest
-0.031842,-0.022021,0.981368,0.015875,-0.02437,-0.006779,rest
-0.03233,-0.020862,0.981185,0.038528,-0.023082,-0.005406,rest
-0.031049,-0.019276,0.981124,0.042132,-0.026944,-0.007294,rest
-0.032635,-0.019337,0.981124,0.025914,-0.027115,-0.003518,rest
-0.031842,-0.020374,0.981734,-0.012957,-0.020165,-0.004977,rest
-0.035014,-0.018361,0.983015,-0.007809,-0.022653,-0.007208,rest
-0.034587,-0.017324,0.982832,0.014587,-0.02068,-0.00429,rest
-0.033855,-0.017446,0.984296,0.026343,-0.000686,-0.006178,rest
-0.035197,-0.016958,0.983564,0.032693,-0.026686,-0.006779,rest
-0.034465,-0.01647,0.983198,0.02497,-0.023855,-0.00429,rest
-0.035136,-0.018605,0.983198,0.034323,-0.021881,-0.005921,rest
-0.034282,-0.015311,0.984479,0.047795,-0.027287,-0.006178,rest
-0.034282,-0.016043,0.984845,0.031148,-0.025142,-0.005921,rest
-0.033611,-0.017446,0.983625,0.029003,-0.025914,-0.012271,rest
-0.035746,-0.017751,0.983381,0.014845,-0.000772,-0.00429,rest
-0.033306,-0.017324,0.986309,0.018964,-0.023082,-0.007036,rest
-0.035685,-0.017629,0.986004,0.024713,-0.028145,-0.005406,rest
-0.033977,-0.016531,0.985211,0.020079,-0.02437,-0.009096,rest
-0.035868,-0.017141,0.986614,0.032006,-0.023511,0.000515,rest
-0.035258,-0.017629,0.986309,0.046937,-0.026772,-0.003947,rest
-0.035014,-0.016775,0.987651,0.056033,-0.028574,-0.002574,rest
-0.0366,-0.018117,0.98637,0.022653,-0.026772,-0.003347,rest
-0.034404,-0.017751,0.987285,0.014073,-0.021195,-0.004376,rest
-0.035136,-0.017629,0.987102,0.018878,-0.023769,-0.002832,rest
-0.03416,-0.016775,0.986187,0.025485,-0.022911,-0.005835,rest
-0.036051,-0.016348,0.985577,0.039815,-0.000086,-0.008323,rest
-0.036356,-0.014945,0.98515,0.03561,-0.000686,-0.002059,rest
-0.036051,-0.016043,0.984845,0.038699,-0.024455,-0.00695,rest
-0.035319,-0.015128,0.98454,0.040587,-0.025056,-0.005063,rest
-0.035258,-0.013542,0.984357,0.047709,-0.026171,-0.004719,rest
-0.03538,-0.013603,0.984235,0.030548,-0.026086,-0.004805,rest
-0.035441,-0.014945,0.984296,0.031148,-0.025399,-0.005749,rest
-0.034892,-0.01525,0.985211,0.004719,-0.043762,-0.005406,rest
-0.035319,-0.016836,0.984418,0.003347,-0.019993,-0.004719,rest
-0.035563,-0.016043,0.98393,0.028059,-0.027115,-0.006521,rest
-0.035319,-0.016409,0.9821,0.018363,-0.02497,-0.008066,rest
-0.035441,-0.016287,0.98271,0.019307,-0.025056,-0.006178,rest
-0.035319,-0.016104,0.982222,0.031063,-0.024884,-0.006007,rest
-0.036356,-0.015128,0.982832,0.041274,-0.024026,-0.003089,rest
-0.034953,-0.016165,0.968192,0.043419,-0.027716,-0.005492,rest
-0.03599,-0.014884,0.983747,0.043676,-0.025399,-0.003518,rest
-0.036661,-0.014518,0.983686,0.042904,-0.023254,-0.003947,rest
-0.035197,-0.014396,0.984174,0.028746,-0.023168,-0.003347,rest
-0.035258,-0.015555,0.984113,0.013729,-0.043247,-0.004977,rest
-0.036661,-0.015372,0.983991,0.016132,-0.042904,-0.004977,rest
-0.035685,-0.016165,0.979233,0.02128,-0.025914,-0.011241,rest
-0.035685,-0.015921,0.984662,0.05629,-0.025056,-0.00635,rest
-0.033977,-0.017202,0.98393,0.015102,-0.024713,-0.00695,rest
-0.034587,-0.018544,0.984723,0.017676,-0.023168,-0.004719,rest
-0.035746,-0.018422,0.984418,0.026772,-0.021795,-0.004977,rest
-0.034892,-0.016897,0.983991,0.01802,-0.025485,-0.004033,rest
-0.035502,-0.015921,0.984967,0.017247,-0.043848,-0.003175,rest
-0.036234,-0.017934,0.984601,0.005663,-0.022653,-0.00266,rest
-0.03416,-0.018239,0.985272,0.023511,-0.043247,-0.004634,rest
-0.034953,-0.016958,0.984967,0.025228,-0.022653,-0.005234,rest
-0.035929,-0.017873,0.982405,0.011584,-0.043676,-0.004891,rest
-0.035624,-0.018239,0.982527,0.022997,-0.023769,-0.003518,rest
-0.036173,-0.018117,0.982771,0.037584,-0.027973,-0.004805,rest
-0.035868,-0.017751,0.982954,0.027888,-0.000601,-0.00429,rest
-0.035746,-0.018361,0.983381,0.018106,-0.021881,-0.00429,rest
-0.036051,-0.018666,0.983259,0.016389,-0.043762,-0.006178,rest
-0.036112,-0.018178,0.968192,0.023511,-0.025742,-0.004376,rest
-0.036356,-0.017873,0.983991,0.028145,-0.02394,-0.003261,rest
-0.036417,-0.017629,0.984052,0.025228,-0.000086,-0.00429,rest
-0.036234,-0.017934,0.984418,0.025142,-0.023855,-0.004634,rest
-0.036295,-0.018544,0.983869,-0.01064,-0.000172,-0.006779,rest
-0.036234,-0.016775,0.984357,0.025571,-0.025485,-0.005492,rest
-0.036661,-0.015677,0.983686,0.039386,-0.025742,-0.004891,rest
-0.036722,-0.016653,0.984723,0.0393,-0.026515,-0.00695,rest
-0.036112,-0.015616,0.984662,0.03295,-0.025056,-0.00429,rest
-0.035929,-0.01769,0.985394,0.030634,-0.026858,-0.006264,rest
-0.0366,-0.016165,0.984784,0.04402,-0.028145,-0.004719,rest
-0.03721,-0.016348,0.984784,0.038356,-0.022396,-0.004977,rest
-0.037515,-0.016531,0.985333,0.034237,-0.024198,-0.003776,rest
-0.037393,-0.01647,0.985272,0.015617,-0.023769,-0.00532,rest
-0.038552,-0.01403,0.984052,0.063755,-0.028488,-0.002059,rest
-0.03782,-0.015067,0.984113,0.063755,-0.027115,-0.005406,rest
-0.036905,-0.016226,0.983564,0.056033,-0.027888,-0.006779,rest
-0.037393,-0.015677,0.983564,0.038442,-0.022825,-0.003947,rest
-0.037454,-0.017507,0.983564,0.032264,-0.024713,-0.007723,rest
-0.03599,-0.016897,0.983259,0.001459,-0.025142,-0.007723,rest
-0.037271,-0.016836,0.982832,0.019564,-0.02231,-0.003604,rest
-0.036722,-0.017141,0.98271,0.00695,-0.020079,-0.00532,rest
-0.037393,-0.016836,0.98271,-0.001888,-0.019822,-0.005148,rest
-0.037332,-0.018422,0.982283,0.046165,-0.024627,-0.008838,rest
-0.035075,-0.014762,0.983198,0.044706,-0.022653,-0.005492,rest
-0.036661,-0.015921,0.982893,0.044105,-0.026171,-0.004119,rest
-0.034648,-0.01647,0.984052,0.026171,-0.023769,-0.007036,rest
-0.035746,-0.016409,0.983808,0.031063,-0.025571,-0.004805,rest
-0.037088,-0.016287,0.983198,0.032435,-0.020508,-0.002917,rest
-0.036539,-0.016836,0.984662,0.025056,-0.027115,-0.002059,rest
-0.0366,-0.017568,0.984601,0.016904,-0.043762,-0.004634,rest
-0.035746,-0.017568,0.984784,0.041789,-0.02497,-0.006092,rest
-0.035136,-0.016653,0.982405,0.029518,-0.025056,-0.00901,rest
-0.036051,-0.016592,0.983991,0.01802,-0.000686,-0.003347,rest
-0.03538,-0.015799,0.983747,0.056977,-0.030634,-0.005578,rest
-0.036173,-0.015982,0.98332,0.065386,-0.029432,-0.005148,rest
-0.036478,-0.016531,0.983442,0.037327,-0.026944,-0.003947,rest
-0.036417,-0.017141,0.983747,0.032178,-0.023855,-0.007465,rest
-0.036356,-0.017629,0.983625,0.027373,-0.023426,-0.007036,rest
-0.035075,-0.017385,0.98393,0.025742,-0.02394,-0.005148,rest
-0.036112,-0.016897,0.984235,0.025571,-0.02703,-0.00532,rest
-0.0366,-0.017141,0.98393,0.025657,-0.025742,-0.00532,rest
-0.03599,-0.016958,0.984235,0.025228,-0.026343,-0.007465,rest
-0.036295,-0.017324,0.984296,0.001888,-0.024284,-0.005663,rest
-0.036966,-0.031232,0.983686,0.028317,-0.023683,-0.005148,rest
-0.037637,-0.015433,0.983991,0.043505,-0.025571,-0.005148,rest
-0.038247,-0.015128,0.984601,0.023683,-0.025142,-0.00532,rest
-0.037576,-0.015006,0.984601,0.049254,-0.026343,-0.004977,rest
-0.038796,-0.014762,0.984784,0.046422,-0.027544,-0.006521,rest
-0.037271,-0.014884,0.985516,0.035696,-0.024884,-0.004805,rest
-0.038064,-0.015128,0.98515,0.032264,-0.025657,-0.003861,rest
-0.037759,-0.015677,0.984967,0.027544,-0.025228,-0.006007,rest
-0.040077,-0.016348,0.984296,0.027373,-0.024541,-0.002488,rest
-0.038613,-0.016348,0.984784,0.016046,-0.025657,-0.005749,rest
-0.038125,-0.01586,0.982771,0.032435,-0.023168,-0.005921,rest
-0.038125,-0.015494,0.983076,0.025657,-0.024455,-0.005921,rest
-0.038003,-0.014884,0.983198,0.026257,-0.025228,-0.00369,rest
-0.037332,-0.014396,0.983259,0.025742,-0.024198,-0.005406,rest
-0.037576,-0.016897,0.983076,0.012528,-0.023855,-0.008581,rest
-0.037149,-0.01586,0.983259,0.011412,-0.043162,-0.005578,rest
-0.037759,-0.016531,0.983076,0.029261,-0.022568,-0.003947,rest
-0.038979,-0.016287,0.983198,0.025571,-0.027287,-0.007637,rest
-0.039162,-0.014884,0.98332,0.015445,-0.021452,-0.000172,rest
-0.038491,-0.015494,0.983564,0.004977,-0.019393,-0.001545,rest
