acc_x,acc_y,acc_z,gy_x,gy_y,gy_z,pitch,roll,yaw,direction
0.048246738,0.001213963,0.985753715,0.007253654,0.057273716,-0.034316309,180.1503411,357.2323689,0.085367073,rest
0.058429465,-0.001929807,0.996963799,-0.086056009,-0.158040971,0.006236178,179.7842393,357.0403665,0.160396054,rest
-0.018512674,0.021122955,0.977468073,0.037338771,-0.253946841,0.001349256,179.370726,354.9080312,0.312837178,rest
0.039518684,0.026221598,0.999644458,0.166842192,-0.276548833,-0.101886973,178.6482559,353.4212792,1.506886367,rest
0.125344545,0.07016705,0.980148733,0.061162516,-0.172701731,-0.05515578,177.5628023,349.6824597,3.056499622,rest
0.120495617,0.084491819,0.954073131,-0.028706422,-0.016557358,0.025274964,177.8966073,349.6028649,3.328731966,rest
0.153468266,0.080121547,0.986728549,-0.002186362,0.015787877,-0.013382409,178.0706678,349.6084751,3.164314798,rest
0.136497051,0.067496337,0.968938649,-0.027366238,0.010832921,0.008384906,177.8314882,350.3185432,3.433894681,rest
0.139891297,0.068224713,0.980148733,-0.008988261,-0.003428809,0.005972248,177.9980219,350.2735349,3.436965918,rest
0.143770441,0.064340033,0.976736963,0.016683552,-0.006637495,0.00321918,178.1892809,350.2297696,3.562670854,rest
0.138921499,0.064582825,0.980148733,0.014829524,0.015302584,0.0074728,178.3225789,350.5704133,3.817528904,rest
0.135284826,0.068224713,0.977468073,0.01129587,0.002437137,0.007016517,178.5471555,350.7684871,3.884042567,rest
0.132133037,0.067981921,0.983073056,0.006259967,0.018597446,0.013475107,178.7222132,351.0489995,4.043882654,rest
0.141345963,0.069195889,0.980148733,0.015779078,0.004161837,-0.000670946,178.8422743,351.1208104,4.123492777,rest
0.135527268,0.066767953,0.985022664,0.003315035,-0.006565366,0.009597411,178.9540162,351.0253662,4.171845821,rest
0.135527268,0.065796785,0.982829392,0.005263299,0.001292232,0.0033602,178.9975245,350.9374207,4.198633396,rest
0.132375464,0.071138225,0.992333591,0.00276446,0.048395619,0.01132841,179.3762448,351.5106426,4.030915113,rest
0.116616488,0.063611656,0.989165485,-0.005434342,0.101532251,-0.021819843,179.4642313,352.3407667,3.974125932,rest
0.080492049,0.068710297,0.991358757,-0.000489425,-0.009139573,-0.015983159,179.2002035,351.8438995,3.912657644,rest
0.077582695,0.059969768,0.981854618,-0.068204358,0.132113695,0.008362268,179.3262888,352.6483404,3.455430907,rest
0.050428752,0.046858966,0.992089868,0.000786856,0.061678171,0.006110287,179.4025274,354.1517833,3.256768239,rest
0.036851779,0.050500855,0.988190711,-0.004677135,0.047036074,0.005251416,179.4795719,354.8637814,3.257954771,rest
0.017213661,0.056570668,0.988678098,0.009118557,-0.019255748,-0.016774835,179.5204847,354.7853521,3.393027311,rest
0.013819417,0.06142652,0.988434374,0.045967255,-0.047361545,0.079242326,179.5562066,354.8934816,3.847160826,rest
0.022062579,0.066767953,0.98404789,0.028344106,-0.049738452,0.005724153,179.6354642,354.53794,4.315132518,rest
0.027638834,0.071866602,0.987703323,0.017508511,-0.018855164,0.000490462,179.6346309,354.4862905,4.442208187,rest
0.031760417,0.075751282,0.991846144,0.015213314,-0.019552458,-0.005759641,179.609728,354.4113898,4.480087136,rest
0.037821561,0.074294522,0.990627706,0.002547368,-0.109290242,-0.004888634,179.5006089,353.8884398,4.634220173,rest
0.056732342,0.074537314,0.978686571,-0.000951007,0.023569603,0.005288695,179.5376832,353.7649333,4.713881096,rest
0.051883429,0.077936418,0.990627706,0.005572855,-0.00704846,0.000497194,179.6070232,353.7260567,4.73483014,rest
0.052368317,0.07817921,0.989165485,0.008788936,-0.020613089,-0.00553834,179.4695452,353.6207719,4.690302429,rest
0.05891436,0.079393171,0.986241162,0.001841236,-0.014425894,-0.002786681,179.368554,353.6815777,4.735957975,rest
0.061581265,0.07817921,0.990384042,0.021910168,-0.008776376,-0.002748701,179.3435009,353.6101023,4.948185613,rest
0.056247454,0.088862084,0.993795693,0.032598466,-0.016673498,-0.014478373,179.2805402,353.4706926,5.629800926,rest
0.045094937,0.099302165,0.981123507,-0.025998274,-0.019886095,-0.006472595,179.3133798,353.5168775,5.5209593,rest
0.06594529,0.093717933,0.980392396,0.034136213,-0.007258393,-0.024615683,179.065198,353.6074757,6.133853092,rest
0.068612188,0.103186846,0.983560503,-0.003666718,0.027025821,-0.016042473,178.9910904,353.9079793,6.077032321,rest
0.058429465,0.104643598,0.986241162,-0.017070476,0.012052834,0.014412694,179.2918783,354.2156336,5.653778732,rest
0.059641697,0.10245847,0.982829392,0.003761102,0.001355976,0.008597831,179.3779797,354.4881138,5.730779723,rest
0.055762563,0.106585942,0.985266328,0.004189931,-0.000778779,-0.004290372,179.3487055,354.6140407,5.680298222,rest
0.057944573,0.102215677,0.979905009,-0.011417434,-0.000609692,0.008149335,179.4465138,354.8069726,5.688662215,rest
0.056489896,0.101972878,0.982098341,-0.051314346,-0.006362703,0.017865341,179.6334971,354.5268614,5.392156873,rest
0.060853925,0.100273333,0.988921821,0.006002367,0.010102786,-0.006292779,179.5940732,354.5595208,5.68483176,rest
0.05406544,0.100030541,0.983560503,0.020728081,0.00658429,-0.004890042,179.5457155,354.8256318,5.805743611,rest
0.053338103,0.10488639,0.980148733,-0.008661997,-0.008436196,0.005887956,179.5918739,355.0353827,5.830326315,rest
0.052368317,0.108771071,0.986728549,0.018159389,-0.000439789,0.006341397,179.6023924,355.1451455,6.177686684,rest
0.050428752,0.11508368,0.988190711,0.002768803,0.005057298,0.001378443,179.7686392,355.2018241,6.190899259,rest
0.054307885,0.108285487,0.976736963,-0.013532549,-0.006639328,0.008606712,179.8175433,355.1812081,6.29023881,rest
0.049701411,0.118482776,0.982585669,0.011132788,-0.002015874,0.003295553,179.8621855,355.2764849,6.583783266,rest
0.049943861,0.113384128,0.983073056,-0.058623537,-0.046089426,0.05115395,180.1464342,355.0496514,6.118073647,rest
0.059399247,0.107314318,0.98745966,0.002555862,0.097227074,-0.024864087,180.260635,357.5928294,5.99305856,rest
0.053338103,0.097602613,0.964308441,-0.028838724,-0.028171036,0.007754163,180.2783662,357.8422295,6.043332168,rest
0.05406544,0.105129182,0.964795828,-0.02667857,-0.124437071,-0.01355081,180.1827299,357.4856123,6.134175391,rest
0.082431607,0.099059373,0.984779,-0.003103841,0.036871072,-0.018934369,179.9091089,357.3064385,6.089560596,rest
0.07540068,0.092989556,0.980148733,-0.048164017,-0.122832358,-0.026509551,179.448317,357.1266634,5.615167672,rest
0.096978366,0.07162381,0.996720076,-0.039775629,-0.045338407,-0.0651455,178.6774072,356.1517113,5.101174593,rest
0.098917931,0.060455348,0.99160248,-0.026630886,0.006018002,-0.094216123,176.8909439,356.1938173,4.013345732,rest
0.099160381,0.06142652,0.984779,0.026351005,-0.001407765,0.08550325,177.6030457,355.8587116,4.125845351,rest
0.090917222,0.065796785,0.974299967,0.03922293,0.040449012,0.169123188,179.4488497,356.2452068,4.349131492,rest
0.09455391,0.069195889,0.983804166,0.00727544,-0.026500307,0.112476066,180.9096942,355.7492151,4.343380899,rest
0.088250317,0.060940936,0.982829392,0.002512697,0.00696254,0.066144899,182.1192114,355.2954677,4.23908946,rest
0.089947432,0.06069814,0.977711737,0.003690284,-0.024961531,-0.004681983,181.9347144,355.2481294,4.336346658,rest
0.103766859,0.071138225,0.989409208,0.07783398,-0.003222574,-0.075519249,181.3582737,355.1919127,4.980547476,rest
0.080007151,0.051957611,0.955291629,-0.036257353,0.045614794,-0.006182408,180.8640412,355.7237829,4.762063812,rest
0.121222958,0.080121547,1.044484735,0.152500004,0.317449838,-0.362622291,181.2197438,354.5558415,4.938134989,rest
0.095038801,0.058513008,0.986972272,0.095956579,0.136650652,-0.020009072,180.4082491,355.7641848,6.352593742,rest
0.044852495,0.191320539,0.918980837,0.028994109,-0.085218675,-0.247815564,181.1588732,358.719086,6.953267471,rest
0.060611479,0.0881337,1.038148642,-0.005727306,0.030627603,-0.098305725,179.2741745,356.1626413,8.980191848,rest
0.036366891,0.12625213,0.986241162,0.110947952,0.019632028,0.053799719,180.1312712,356.2688734,9.362477536,rest
0.039276235,0.130865201,0.996476471,-0.059788883,0.208083957,-0.221700504,178.0240449,358.334821,9.523869783,rest
-0.025670907,0.145189956,0.986484826,0.061162435,-0.611697197,-0.007897669,176.4562706,351.4959261,10.65960218,rest
0.121950299,-0.07285022,1.235543013,0.049861431,-1.210345149,0.374198526,179.5268095,348.5303562,3.544503618,rest
0.027396388,0.017238274,0.885350645,0.178143129,-0.154159129,0.18421945,181.6309759,345.2724934,7.180054511,rest
0.099887721,0.010925665,0.934821069,-0.033827111,-0.248843253,-0.375638545,180.1451092,345.1402626,10.31241598,rest
0.02545682,0.050500855,0.957728624,-0.003681622,-0.050441936,0.036597889,178.9844242,345.6141395,9.691617522,rest
0.063278385,0.071866602,0.973568916,0.054321967,0.081789523,-0.033465941,178.8605655,346.8163262,10.24836844,rest
0.083158948,0.072352186,0.985022664,0.077744067,0.014105377,-0.052056685,178.2870892,347.8916635,11.11313015,rest
0.102312177,0.091775589,0.989409208,-0.005763609,0.025078507,-0.027131444,178.3639698,348.3460273,10.96319896,rest
0.147407115,0.0621549,0.979417682,0.036361892,0.095693663,-0.043846365,177.5687855,348.0240573,11.19296738,rest
0.069097087,0.096631445,0.982342005,0.095108829,-0.000939455,-0.071864724,177.2842672,347.8215815,11.64172874,rest
0.043882709,0.106828734,0.999157071,-0.02719174,0.004918674,0.080677725,179.2228797,348.5557713,10.29289359,rest
0.064733058,0.07550849,0.995501637,-0.029586181,-0.054167021,0.023864122,179.2922335,348.4326563,9.683470814,rest
0.035154656,0.111441791,0.991115034,0.06601423,-0.062719136,-0.085786186,178.4826921,347.9138385,9.952138866,rest
0.026426604,0.077936418,0.936770737,-0.049509287,-0.012415944,0.052291777,178.7569242,348.332419,9.029825125,rest
0.024002146,0.103429638,0.987947047,0.043953095,-0.052733049,-0.177393556,177.5905055,348.6882701,9.439744905,rest
0.002182013,0.089104876,0.977711737,-0.057775434,0.083785191,0.053437974,178.3008452,350.1876324,8.670252378,rest
0.001454675,0.078422002,0.981854618,0.015027519,0.053086147,-0.010688154,178.3944324,351.3694498,8.427466473,rest
0.030063294,0.096145861,0.99769491,0.070030019,-0.109367087,-0.042940844,178.138437,347.5837107,10.17609565,rest
0.076128013,0.081578307,0.977711737,-0.083365805,-0.025204021,0.022946235,178.3242864,348.7821357,8.875585793,rest
0.059399247,0.085462987,0.978442848,-0.05162403,-0.027564421,-0.018876795,178.2823217,348.7290976,8.134365981,rest
0.081946716,0.076236866,0.999157071,0.021562576,-0.026363041,-0.027060585,177.8848047,348.9680706,7.872528118,rest
0.053580545,0.085948572,0.983316779,0.007742189,-0.062896706,0.000822224,177.9214145,349.1019055,7.873783165,rest
0.087280527,0.07162381,0.985510051,-0.006504104,0.039769489,0.015939396,177.9896344,349.4407068,7.78192822,rest
0.059156805,0.085948572,1.000619292,-0.003120761,0.015117638,-0.043087825,177.8049871,349.9011333,7.360701916,rest
0.052610762,0.078664787,0.973568916,-0.043279991,-0.029438488,0.016003504,177.8507357,351.3091017,6.906218994,rest
0.047276955,0.081821099,0.99501425,-0.035918474,0.008290798,-0.013877738,178.0286895,351.5063029,6.406503144,rest
0.047276955,0.074294522,0.996963799,0.022017755,-0.020348819,0.072740972,177.9792526,351.8420844,6.332462613,rest
0.05406544,0.075751282,1.005736828,0.032263957,-0.012542855,0.034029748,178.5821124,352.3213724,6.471741696,rest
0.081704274,0.07550849,0.993795693,0.015214026,-0.100113541,0.077360325,179.2317727,351.4506992,6.6303865,rest
0.160984099,0.065554,0.985510051,0.022544406,-0.006345721,0.059645232,179.532178,348.2331567,7.575589058,rest
0.061338816,0.084977403,0.976005912,0.317897737,-0.225646347,-0.079326607,178.9936449,346.7563494,10.79992073,rest
0.147649571,0.05827022,0.982342005,-0.090824306,0.077889025,0.108778737,180.6148076,347.3895686,8.506676177,rest
0.013576971,0.038118433,1.02230823,0.047338333,0.031234775,-0.172327816,178.6114276,352.3435108,6.873338463,rest
-0.006417727,0.017238274,1.00183773,0.124918222,0.039481454,0.118444033,179.9277279,353.1422297,7.859235716,rest
0.068369746,0.053657159,0.924342155,0.013740744,0.330253303,-0.06695357,179.3724199,358.606511,9.168018635,rest
0.08897765,0.043217078,0.995745361,-0.128763855,0.150797933,-0.100636728,178.8647183,359.1777798,7.609567542,rest
0.081219383,0.03204862,0.999400795,0.103975788,-0.167157426,-0.020918816,178.8267834,356.9192792,7.441527813,rest
0.070794202,0.062640481,0.983316779,0.062095139,0.008003281,-0.049192779,178.7165305,357.3730021,7.895713195,rest
0.085583411,0.048558515,0.935795903,0.017207824,-0.001440505,0.05433635,179.1530069,356.118716,7.261492564,rest
0.064490609,0.061669316,0.992089868,0.050555572,-0.024423765,0.074382871,179.0421529,356.3911718,7.162333585,rest
0.07855247,0.060455348,0.973325253,0.001772016,-0.032863528,0.011864951,178.8051727,355.5535033,7.168846171,rest
0.083886288,0.062397692,0.984779,0.030667085,0.010625144,0.028861456,178.9297144,355.2097296,7.351685212,rest
0.070066869,0.07016705,0.999157071,0.035674494,-0.013667703,-0.035364214,178.6275195,355.2269831,7.316383379,rest
0.092856787,0.058998596,0.985753715,0.047692627,0.048659794,0.018377988,178.3358294,355.5525505,7.340441013,rest
0.062066156,0.079150379,0.997207463,0.003111038,-0.0134173,0.001489662,178.1920266,355.4280579,7.40480957,rest
0.065217957,0.087648116,0.972350419,0.014174607,-0.071723983,-0.017208815,177.7850293,354.9398441,7.665649372,rest
0.079037368,0.07162381,0.992820978,0.000614066,0.009481088,0.016114727,177.824863,355.0542861,7.528593088,rest
0.068854645,0.082792267,0.981854618,-0.0166879,-0.027930757,0.017905528,177.7273415,354.7119344,7.263976192,rest
0.068369746,0.088619292,0.985022664,-0.003593411,0.002012081,0.015721826,178.1190529,354.701529,7.131243418,rest
0.055762563,0.099059373,0.979173958,-0.006293494,-0.026364496,-0.026964018,177.9803454,354.5352152,7.076795284,rest
0.078067586,0.076236866,0.993552089,0.010504823,0.005098378,0.042869832,178.3870149,354.773205,7.064326347,rest
0.065702841,0.093717933,0.990384042,0.017155938,-0.029794961,-0.046899199,177.8273901,354.6007222,7.051830943,rest
0.062793493,0.094931901,0.991846144,-0.013426691,0.030739985,-0.000486015,177.9264279,354.6453524,6.779629548,rest
0.070794202,0.078664787,0.980392396,-0.094673231,-0.003616063,-0.01890612,177.5797821,354.8060731,6.269132672,rest
0.077097803,0.055356707,0.965526879,-0.046146765,-0.064878523,0.03970987,177.25487,354.3149091,5.461275399,rest
0.06594529,0.08959046,1.012560368,0.029913526,-0.081059545,-0.00687814,177.4864134,353.4444783,5.167912798,rest
0.097463258,0.047344554,0.993795693,0.009580228,-0.089768872,0.045794528,177.6205174,352.5253022,4.729217432,rest
0.086795643,0.064825617,0.976980627,-0.010606788,0.023962999,-0.002793039,177.9132046,352.9496909,4.765514338,rest
0.086795643,0.069924265,0.998669684,0.021195918,0.030917725,-0.016616354,178.1828195,353.4454555,5.2184737,rest
0.082674064,0.072109394,0.992333591,0.008790515,0.010508096,0.012039958,178.4857247,353.8880919,5.555195623,rest
0.079279818,0.073566154,0.984779,0.010255232,-0.017835118,-0.021249963,178.1992256,353.7548174,5.544310009,rest
0.076128013,0.087890908,0.989165485,0.011253346,0.02153803,-0.023236863,178.4957105,353.9350127,5.600980943,rest
0.092856787,0.073323362,0.989652932,0.003438357,-0.007419201,-0.023756005,178.2551102,353.7055448,5.618778708,rest
0.080249593,0.084734611,0.988434374,0.009378441,0.020525943,-0.006256346,178.5149989,354.1117537,5.631204957,rest
0.077825136,0.074780107,0.992089868,-0.010140922,-0.020280501,0.005859974,178.566922,354.0174587,5.508441271,rest
0.086310744,0.077208042,0.994770527,0.001408108,0.004858896,-0.002452916,178.7229782,354.0800949,5.538728891,rest
0.088250317,0.07696525,0.986241162,0.004691888,0.006814444,0.00281418,178.8658384,354.0154856,5.469933518,rest
0.091886997,0.069924265,0.99428314,0.009137843,0.023286492,0.018199397,179.0567012,353.8693725,5.245125952,rest
0.087038085,0.081092723,0.98404789,0.002027653,0.009097006,0.00072166,179.1945071,353.8732324,5.19715668,rest
0.072248884,0.079150379,0.982829392,0.001546666,-0.012274643,-0.003748818,179.132448,353.8643548,5.208057235,rest
0.086795643,0.076479658,0.982829392,-0.002924334,-0.010330688,-0.005274589,179.1126132,353.645627,5.06192918,rest
0.083158948,0.077936418,0.988921821,0.004919089,0.016801836,-0.002130121,179.1693994,353.8033241,5.047328797,rest
0.065702841,0.086676955,0.984535277,0.014991425,0.002457749,-0.016116442,179.3226688,354.2101891,5.285998231,rest
0.08897765,0.073808946,0.979905009,-0.000666622,0.002450965,0.007240156,180.2691727,354.1937215,5.20082193,rest
0.092129454,0.07308057,0.983073056,0.030320585,0.052791461,-0.01746878,179.9469754,354.4969452,5.319564769,rest
0.063278385,0.088619292,0.993552089,-0.008665036,-0.026845718,-0.008763427,180.0231903,354.6086896,5.21788417,rest
0.07055176,0.083763435,0.998182297,0.029774677,-0.017304292,-0.005270512,180.0225893,354.5310172,5.314819922,rest
0.080007151,0.084491819,0.971131921,-0.000598833,0.014563181,0.084449783,179.9706215,354.3980573,5.318577807,rest
0.072006434,0.089347668,0.999157071,0.016144555,0.095578738,-0.058825292,179.5984035,355.3693366,5.67819367,rest
0.069339536,0.072837777,0.994039416,-0.032823712,-0.176820233,-0.033199586,179.2132082,355.5155112,4.85556654,rest
0.060611479,0.073808946,0.973081529,0.051757488,0.004040685,-0.027513178,178.0614607,356.0077177,5.117966186,rest
0.047276955,0.081821099,0.990627706,-0.016421236,-0.005309198,0.020622097,178.2137876,356.0269468,5.203947169,rest
0.101584837,0.07550849,0.988921821,0.000787988,0.006672435,0.028199323,178.579995,355.6381921,5.061303791,rest
0.077340245,0.085948572,0.984779,0.016107682,0.099107884,-0.00482041,178.6185036,355.7375428,5.084503382,rest
0.053095657,0.083520643,0.992089868,-0.005880903,-0.02074533,0.030233189,178.9497132,355.7174475,4.96168847,rest
0.078310028,0.081092723,0.980148733,0.013723526,0.01049556,0.013704153,179.1086107,355.5548395,4.918595099,rest
0.048004292,0.094689108,0.984291553,-0.009549011,-0.010853885,-0.00723515,179.1788933,355.6470496,4.836833465,rest
0.057217237,0.085462987,0.989896595,0.00730101,0.007139333,0.016091114,179.3267942,355.5154784,4.875733954,rest
0.042670481,0.086676955,0.981610894,0.004607309,-0.026211239,0.039280571,179.6988346,355.4793458,4.94158082,rest
0.062066156,0.075751282,0.975274801,-0.031706139,-0.048269637,0.056823477,180.0849489,354.8703128,4.605284076,rest
0.056247454,0.099544957,0.991358757,-0.007485796,0.009538677,-0.016986217,180.3718168,355.1896314,4.541985298,rest
0.061581265,0.097602613,0.999157071,-0.043588117,0.096269295,-0.056803849,181.144161,354.5199497,4.2380295,rest
0.059884142,0.097117029,0.976249576,0.00097036,0.002332021,-0.034424998,181.0015466,354.6338836,4.285638907,rest
0.042912927,0.085462987,0.981123507,-0.005488835,-0.020823324,0.013987503,180.9744717,355.0030515,4.387738709,rest
0.053580545,0.086191364,0.996476471,0.006653886,0.003468459,-0.008521062,180.8302591,354.7844569,4.285215008,rest
0.065217957,0.074537314,0.936770737,0.004439961,0.00941615,0.010240705,180.6797627,354.8910872,4.387511178,rest
0.04679206,0.097602613,0.99501425,-0.006101731,-0.006571406,-0.046499483,180.5107702,354.8986593,4.396760962,rest
0.063520834,0.071381018,0.981854618,-0.015743643,0.003674231,0.059856892,180.9005554,355.0823795,4.42935121,rest
0.030548185,0.106100358,0.993064702,-0.010568894,-0.006973002,-0.053757716,180.9515906,355.1596473,4.345194315,rest
0.062308598,0.084977403,0.977468073,-0.000369091,-0.014366057,-0.001837983,180.6748996,355.0238473,4.518011761,rest
0.060853925,0.086676955,0.99501425,0.006616507,0.028576516,0.074319623,180.5988387,354.9950854,4.650535787,rest
0.046549615,0.092503972,0.98063612,-0.002425443,-0.013995897,-0.042002179,180.3629922,355.0399158,4.673897168,rest
0.056005009,0.086676955,0.976249576,0.003164276,-0.008617591,0.021030406,180.4936128,355.0407034,4.635975104,rest
0.053095657,0.089347668,0.984535277,0.016747329,0.0390523,-0.002398343,180.5474756,355.4213763,4.748821355,rest
0.047034506,0.090561636,0.963333607,0.002708044,-0.029343184,0.002629365,180.3826905,355.5012916,4.861095578,rest
0.042670481,0.093475141,0.986241162,0.000825476,-0.029137801,0.003174633,180.3464358,355.3201687,4.85122382,rest
0.067884855,0.079878755,0.976736963,0.009217594,0.01692117,0.037188783,180.3847669,355.4665772,4.925847479,rest
0.048974074,0.087162532,0.976980627,-0.004657645,0.025826791,0.012381246,180.4287943,355.9081716,5.004825383,rest
0.065460399,0.071381018,0.975518465,-0.036582187,-0.031488243,-0.028049354,179.5694299,355.8123256,4.734820748,rest
0.058429465,0.080607139,0.975031078,0.041775808,0.014379555,0.058339134,179.8344276,356.2007986,4.95160028,rest
0.049216524,0.07696525,0.990140319,-0.011584274,-0.02842975,0.028267862,179.968832,356.0372865,4.96222592,rest
0.063763276,0.077450834,1.00110662,-0.022100121,0.002161285,0.014933877,179.9858392,355.4723333,4.609486777,rest
0.067642413,0.045402214,0.982585669,-0.012625724,-0.009175655,0.088823937,179.7548559,355.5447705,4.714219617,rest
0.045579832,0.093232349,0.992333591,0.001147047,0.017213184,-0.007326352,179.7852092,355.6026892,4.721805396,rest
0.054550331,0.095174693,0.979661286,-0.000250153,0.031869691,0.004590133,180.0215237,356.0964577,4.748293723,rest
0.034669768,0.111441791,1.001593947,-0.027929949,-0.021346645,-0.077709988,179.3310973,355.7644776,4.219182447,rest
0.055762563,0.079635963,0.998669684,0.008608218,-0.000659771,-0.003125775,179.4524424,355.6199132,4.06482871,rest
0.035154656,0.079150379,0.989165485,-0.015803332,0.027224133,-0.069892064,179.7853868,356.0468854,3.623395291,rest
0.057702132,0.063368864,0.995989025,0.023539998,0.00160424,0.075056732,179.4409267,355.8822467,3.796701096,rest
0.033457536,0.081821099,0.995257914,0.00236221,-0.015112739,-0.048158854,178.8330262,355.9581297,3.994153754,rest
0.048974074,0.073808946,0.998913348,0.006615415,-0.001928482,-0.001207548,178.6201839,356.0138657,4.1581022,rest
0.069824427,0.072352186,0.98745966,0.010399748,0.024700927,0.000644591,178.6929527,355.9370432,4.073966649,rest
0.069824427,0.075751282,0.997207463,0.017265715,0.041533675,0.062329113,179.6666918,356.368105,4.18247701,rest
0.064490609,0.074294522,0.972106695,0.011805039,0.010203173,-0.005146847,179.3898096,356.4652478,4.336292017,rest
0.046064727,0.08424902,0.992333591,0.006598737,0.024464773,0.02018417,179.7870397,356.7712118,4.300473224,rest
0.034184873,0.087890908,0.992333591,-0.007547095,-0.034140348,-0.011176067,179.7644181,356.439972,4.242514373,rest
0.057944573,0.069438681,0.990384042,-0.001161303,0.032280371,0.019856198,179.7459903,356.449645,3.829660174,rest
0.041458253,0.086434156,0.984535277,0.005843803,-0.007766277,0.022226281,180.3280626,356.6233276,3.954225749,rest
0.042912927,0.091775589,0.98404789,-0.000492215,-0.001951298,-0.038022704,180.3535802,356.5714973,4.011362842,rest
0.038306456,0.085220195,0.983804166,-0.005535707,-0.017840359,-0.006927787,180.1821561,356.4445905,4.139857057,rest
0.057944573,0.070652634,0.992577255,0.020563867,0.091690905,0.018168684,180.2913162,357.7933377,4.410099895,rest
-0.029620279,0.118482776,0.961384058,-0.037110679,-0.1306317,-0.112284333,179.6904745,357.4885079,4.620568332,rest
0.055035222,0.091290005,0.985266328,0.017561872,0.01421703,-0.069835983,178.437326,357.6612295,4.892045727,rest
0.052610762,0.082792267,1.003056169,-0.031284243,0.022561003,0.031278364,178.5709109,357.3865148,4.575171907,rest
0.08509852,0.0621549,0.975762188,-0.005285393,-0.014044683,0.065611459,178.7706529,357.0758635,4.410961779,rest
0.016001431,0.109985039,0.986484826,-0.014817219,-0.014848413,-0.103453517,178.5746402,357.0765576,4.331697434,rest
0.094069012,0.051714819,1.000619292,-0.000580236,0.038526934,0.080106132,178.6460293,356.8723778,4.200406257,rest
0.064005725,0.059726976,0.987947047,0.005520791,-0.070234075,-0.073674992,176.9077871,355.881918,4.558035389,rest
0.041700698,0.075994074,0.985266328,-0.012199819,-0.202804923,0.024362283,177.0307988,354.4207758,4.525455386,rest
0.045579832,0.076236866,0.962358892,-0.061716054,-0.101584703,0.105438598,177.2630116,353.7368591,4.121137643,rest
0.068127304,0.05948418,0.99769491,-0.009717785,0.033431653,0.041415557,177.4048883,354.2978738,3.791998511,rest
0.074915789,0.012868007,0.985510051,0.033845276,0.039705142,-0.006979857,176.0601333,354.8672447,4.13462684,rest
0.052368317,0.081092723,0.969913483,0.0892113,-0.032499004,-0.114998795,175.6918632,355.2890401,4.955397439,rest
0.04679206,0.07016705,0.992577255,-0.038467828,-0.017563175,0.024495658,175.4836517,355.7526225,4.995839842,rest
0.078067586,0.057299048,0.982829392,0.019106142,0.014377926,-0.005582286,174.6666381,355.9807957,5.331821543,rest
0.04048847,0.096631445,0.986484826,-0.004526723,-0.008656416,0.004800205,175.0650841,356.0660663,5.150328903,rest
0.048004292,0.0881337,0.992820978,0.001633901,0.048901632,0.04895081,175.6716732,356.7219401,5.190928401,rest
0.053095657,0.088862084,0.98063612,-0.001034312,0.001849988,0.017379481,176.2122143,356.9890157,5.172422004,rest
0.028608618,0.094931901,0.988678098,-0.006586634,0.009631792,0.002770096,176.5681491,357.2800887,5.416342573,rest
0.042912927,0.090561636,0.982585669,0.004339308,-0.002568873,-0.006836983,176.5327961,357.300969,5.359970887,rest
0.04048847,0.0883765,0.986728549,0.012155961,0.0158718,-0.008855142,176.7460892,357.3858175,5.372974287,rest
0.027396388,0.080121547,0.97381264,-0.005888663,0.006830959,0.004544182,176.8622571,357.8820412,5.313397962,rest
0.034669768,0.090318836,0.936770737,0.039255198,0.052061345,-0.028565113,176.72482,358.4435954,5.553228529,rest
0.025699267,0.092018381,0.988434374,-0.048309971,-0.025772238,0.012896529,176.9168303,358.1201127,5.333304121,rest
0.027396388,0.075751282,0.982829392,-0.02403106,0.001662573,0.018240724,177.0366728,358.2885199,4.714590582,rest
0.018910781,0.083035059,0.995989025,0.016704466,0.005072957,-0.001631618,177.2395841,358.3542609,4.856734502,rest
0.023274807,0.078422002,0.982585669,-0.011109203,-0.016022876,0.009825593,177.4652398,358.3193101,4.864393279,rest
0.020607902,0.077936418,0.98404789,0.005002055,-0.010452082,0.010224137,177.7176017,358.4216559,4.832206012,rest
0.015274093,0.083035059,0.987703323,0.001460064,-0.006044531,0.001109086,177.946454,358.4511592,4.657700229,rest
0.020365456,0.079635963,0.991358757,-0.007000852,-0.007241394,0.003456919,178.0827572,358.4025692,4.660098906,rest
0.018668335,0.079635963,0.988190711,0.002234757,0.016756775,-0.065972865,178.4895087,358.6169198,4.581210221,rest
0.021092795,0.079150379,0.989896595,0.012257777,0.044047587,-0.010495059,178.4939483,359.7053074,4.697375944,rest
0.012364741,0.076236866,0.992820978,-0.020851795,0.0055518,0.001596824,178.603846,359.6575247,4.572236206,rest
0.000484892,0.078907587,0.985510051,0.002764016,-0.004055869,0.004236998,178.8223438,359.3331082,4.347858942,rest
0.00121223,0.082306683,0.986728549,0.028515294,-0.022612423,0.029283062,179.1830597,359.1015381,4.518844617,rest
0.005091364,0.082063891,0.987947047,0.006521579,0.010984529,0.008817342,179.3292531,359.1030423,4.618176912,rest
-0.000987343,0.081578307,0.983316779,-0.002640344,-0.007644754,0.010341769,179.5074937,359.0274245,4.634983019,rest
-0.001974685,0.081335515,0.979905009,0.001025099,-0.021997647,0.006371079,179.4910603,359.0815706,4.691929295,rest
-0.000493671,0.081821099,0.977711737,-0.008137595,-0.021383213,0.012477484,179.5749897,359.0215233,4.792405646,rest
0.00121223,0.087405324,0.988678098,0.025151532,0.01068683,0.003319367,179.6491792,358.9953483,4.782289282,rest
0.002424459,0.087162532,0.992577255,0.002245337,-0.005497273,0.008813391,179.9157068,358.7450756,4.618213624,rest
-0.000493671,0.085462987,0.98136723,0.004995305,-0.014045537,0.000870974,180.0045166,358.7299246,4.528884141,rest
0.002666905,0.084491819,0.986972272,0.007743195,-0.003661266,-0.00126635,179.9714821,358.8323447,4.557767731,rest
-0.000493671,0.087405324,0.985022664,0.01506998,-0.005186915,-0.010732722,179.9242719,358.8682642,4.686547532,rest
-0.001974685,0.086191364,0.985266328,0.00193743,-0.017705906,0.007897164,179.9400906,358.8468731,4.625800257,rest
-0.001234178,0.086434156,0.988434374,0.002854679,-0.011898274,0.000568409,179.8268734,358.7494082,4.552560138,rest
-0.001481014,0.088862084,0.989896595,0.003466059,-0.011589892,0.008201463,179.9410741,358.6892667,4.472614055,rest
-0.001974685,0.086676955,0.985510051,0.001938686,-0.006396491,0.00148247,179.8984538,358.7347754,4.472240529,rest
0.00121223,0.086434156,0.990384042,0.005603824,-0.005172968,0.005757126,179.924627,358.7234294,4.441010343,rest
0,0.087405324,0.987703323,0.002854932,-0.009447081,0.005450037,179.9856343,358.7498575,4.440889961,rest
-0.000987343,0.086676955,0.982585669,-0.000504676,0.00430005,0.004532185,180.0824354,358.5548134,4.548336947,rest
0.005818702,0.08424902,0.985753715,0.015374511,0.007962774,0.003921923,180.0039292,358.7468237,4.65716662,rest
-0.003455699,0.085948572,0.988190711,0.026363745,-0.004255844,0.008196298,180.0544316,358.9527329,4.871972227,rest
-0.002962028,0.083277851,0.979905009,-0.007843006,0.00368607,-0.068163641,180.1337028,359.0037496,4.823247365,rest
0.003879135,0.084491819,0.987215936,0.016284458,0.00551725,0.008804101,180.0739113,358.7089704,4.647242782,rest
-0.011848111,0.084977403,0.972106695,0.021163609,-0.00487316,0.010329558,180.1503411,359.3797411,5.139683199,rest
-0.004936713,0.091532797,0.978686571,-0.01151586,-0.01403545,0.010939256,180.1625125,359.5338936,5.227991142,rest
-0.003208863,0.090561636,0.986728549,0.018718664,0.010395152,0.001775932,180.1666926,359.7030883,5.296197411,rest
-0.009626591,0.095417485,0.990871429,0.016271535,0.005814636,-0.007385594,180.1178841,359.6886734,5.413641233,rest
-0.014316468,0.100273333,0.984535277,-0.004497238,-0.018920634,-0.002492628,179.5618074,359.6084852,5.437301009,rest
-0.004936713,0.091775589,0.990627706,-0.010905314,0.014678412,0.008501804,179.5792244,359.3424579,5.016768823,rest
-0.006911398,0.084977403,0.984535277,0.008334842,0.012840784,0.019493772,179.7282864,359.7386625,5.091414253,rest
-0.013329125,0.085220195,0.98063612,0.003141589,-0.022281585,0.013687871,179.8275154,359.8129055,5.175729523,rest
-0.011848111,0.090804428,0.93628329,0.007111616,0.01467453,0.002386664,179.9126879,359.7235411,5.006684475,rest
-0.012835453,0.092503972,0.983073056,0.007415541,-0.006401608,0.002691905,179.9084395,359.9236537,5.09042601,rest
-0.008639248,0.08959046,0.984535277,-0.001135949,-0.001512047,0.003607448,179.9105432,359.7909931,5.020980488,rest
-0.013082289,0.087162532,0.985997438,-0.007853642,-0.012505339,0.01398922,180.011456,359.7671508,4.970121619,rest
-0.012341782,0.089833252,0.986972272,0.004362207,-0.014640575,0.006351778,180.0691028,359.7416193,5.043871013,rest
-0.003455699,0.088619292,0.992333591,0.01413431,0.004907724,0.006349869,180.1354376,359.6870164,5.053423033,rest
-0.011601276,0.091532797,0.983560503,-0.006329495,-0.028378764,0.001768369,180.1205888,359.482507,5.140642414,rest
-0.013082289,0.092018381,0.981610894,-0.002665091,-0.017992111,0.001462876,180.1078983,359.56328,5.315143502,rest
-0.002221521,0.089104876,0.981854618,0.006802991,-0.007911276,0.000241392,180.0729961,359.5413246,5.325321338,rest
-0.002221521,0.085705779,0.990627706,0.002223097,0.000336552,0.010312524,180.1402871,359.4788469,5.168072027,rest
-0.00567722,0.093475141,0.99160248,0.007108845,0.008276742,-0.000683803,180.2091081,359.5167012,5.1720536,rest
-0.005430384,0.088862084,0.987947047,0.008634575,-0.011575025,0.004508005,180.2052558,359.5706004,5.191406941,rest
-0.010860768,0.093232349,0.98404789,0.002830204,3.04319E-05,-0.000684689,180.2509635,359.7344356,5.261699406,rest
-0.003702535,0.087890908,0.986728549,0.003135048,0.002473269,0.011224353,180.3488811,359.7126147,5.265806058,rest
-0.009626591,0.085462987,0.986484826,-0.004500631,-0.012492165,0.011826871,180.4434928,359.9124013,5.309920115,rest
-0.01530381,0.090318836,0.989165485,-0.002360955,-0.006382471,0.001745742,180.5321214,359.9645976,5.176476148,rest
-0.006170891,0.085948572,0.981123507,0.002220795,-0.015544483,0.012427411,180.6113379,0.039791518,5.1194287,rest
-0.006911398,0.089104876,0.988921821,-0.002969269,-0.012790797,0.003263609,180.5797414,359.7428723,4.949684839,rest
-0.010120261,0.08959046,0.985022664,-0.008159745,-0.006374309,0.00204121,180.5609721,359.6587357,4.916450846,rest
-0.006417727,0.086919747,0.988190711,0.007416654,0.004012007,0.005094662,180.5320804,359.5552444,4.858472785,rest
-0.007651905,0.091290005,0.981854618,-0.002660949,-0.010949865,-0.00193034,180.4963722,359.4316226,4.816533716,rest
-0.012094947,0.090561636,0.980392396,-0.00479836,-0.02163676,0.003261089,180.4781765,359.4639125,4.853202014,rest
-0.013575961,0.091290005,0.987215936,-0.002049748,-0.016441979,0.008756207,180.5365337,359.4867122,4.906293928,rest
-0.007651905,0.091290005,0.986484826,0.007722713,0.006466303,0.002646862,180.5340885,359.4340501,4.97022706,rest
-0.014810139,0.090804428,0.98745966,-0.006326389,-0.009413077,0.000814035,180.5079288,359.3299909,4.992913106,rest
-0.008639248,0.089104876,0.990140319,0.002531804,5.71702E-05,0.006004978,180.52928,359.2483279,4.899034718,rest
-0.015797481,0.089104876,0.982829392,-0.00846374,-0.017350936,0.006003926,180.508325,359.3999732,5.001866204,rest
-0.008886083,0.085462987,0.982829392,-0.000828177,-0.005438156,0.008751306,180.4933942,359.3892917,5.022596682,rest
-0.008886083,0.087890908,0.989165485,0.00344732,-0.012767142,0.004169638,180.4296549,359.4548098,5.006282348,rest
-0.009379755,0.088619292,0.985510051,-0.002967607,-0.00665812,0.011496942,180.530851,359.5262453,5.070731586,rest
-0.008639248,0.089347668,0.988434374,-0.003272317,-0.005433893,0.002333067,180.5362605,359.4342521,5.035938176,rest
-0.010367097,0.088619292,0.986241162,-0.002966445,-0.011234948,0.0014169,180.4798021,359.4139185,5.01196037,rest
-0.009873426,0.08959046,0.982342005,-0.004799116,-0.006956466,-0.001332582,180.5024237,359.3462798,5.065439043,rest
-0.016044317,0.096388653,0.985266328,-0.001133483,-0.010924697,-0.011411188,180.5217122,359.3376117,5.08294866,rest
-0.012094947,0.093717933,0.990140319,0.008028112,0.000681546,-0.006829389,180.5122455,359.4175637,5.132603708,rest
-0.011107604,0.088862084,0.985997438,8.6043E-05,-0.002066417,0.00325474,180.5030248,359.452801,5.206482876,rest
-0.014563303,0.093475141,0.984779,-0.001440931,-0.017335782,-0.002854964,180.5977731,359.5396648,5.213386917,rest
-0.01530381,0.089104876,0.982342005,-0.003579263,-0.014584906,0.007530747,180.3540174,359.5630681,5.285898767,rest
-0.015056974,0.090561636,0.987703323,-0.001135692,-0.02068988,0.005392515,180.3311635,359.5443428,5.271794853,rest
-0.013082289,0.095660269,0.986728549,0.004362538,-0.013357282,-0.00377031,180.3514629,359.5420484,5.236802513,rest
-0.012341782,0.090076044,0.98136723,-0.001746062,-0.009689083,0.000816467,179.6349997,359.5268421,5.286490005,rest
-0.008392412,0.084734611,0.983804166,-0.006325882,-0.012434583,0.011810271,179.661091,359.3719956,5.231651697,rest
-0.01135444,0.098573789,0.990384042,0.010776758,-0.006937204,-0.000408035,179.8251658,359.4850064,5.296129536,rest
-0.002468356,0.086676955,0.98136723,-0.002358023,0.006807085,0.012112957,179.858019,359.4661327,5.3765405,rest
-0.018512674,0.091775589,0.985266328,-0.002358586,-0.007242296,0.002948466,179.981099,359.5574995,5.430262499,rest
-0.007651905,0.091290005,0.976493299,0.004968617,0.01901901,0.002336857,180.0620131,359.9441665,5.681449109,rest
-0.017031658,0.099544957,0.985997438,0.011380881,0.002832239,-0.020870965,179.8793019,359.8959307,5.703155023,rest
-0.020240523,0.0883765,0.974787354,-0.004501071,-0.02037653,0.010587055,179.8623904,359.7873375,5.653726225,rest
-0.021968372,0.101244502,0.981854618,-0.001141071,-0.008462317,0.001423229,179.9462651,359.7607721,5.662018928,rest
-0.021227866,0.094931901,0.98063612,-0.000225365,-0.010293834,0.007530753,179.9717007,359.8584928,5.70395074,rest
-0.018265838,0.096388653,0.992820978,0.008325446,0.003756251,0.003865254,179.9760037,359.9028957,5.720357281,rest
-0.017525332,0.098088197,0.986972272,7.94865E-05,-0.006318996,0.005085369,180.0317554,359.8009073,5.680467696,rest
-0.019746851,0.092989556,0.984291553,-0.002363786,-0.004790394,0.011802321,180.1109173,359.8000926,5.683329972,rest
-0.01875951,0.101244502,0.98404789,0.007408909,-0.004788391,-0.006828374,180.1430465,359.7649505,5.682343863,rest
-0.020487361,0.097602613,0.981610894,-0.001142967,-0.005093079,0.008746818,180.2142444,359.8175744,5.671878733,rest
-0.01530381,0.096388653,0.983073056,0.008323725,0.0077335,0.009356453,180.2395434,359.9229041,5.697304966,rest
-0.024930399,0.097117029,0.985753715,-0.012445506,-0.019753922,0.009354915,180.2752653,0.018125194,5.806359608,rest
-0.01875951,0.096631445,0.989409208,0.004352011,-0.001734294,0.004773095,180.2855789,0.147445495,5.828909478,rest
-0.017278496,0.098573789,0.983316779,0.005267054,-0.008452324,-0.00133481,180.2501438,0.181874891,5.848257269,rest
-0.020487361,0.098816581,0.981123507,-0.000842568,-0.008756293,0.000192484,180.2312925,0.207479856,5.909638899,rest
-0.017031658,0.099302165,0.984535277,0.004043419,-0.002341153,-0.003471472,180.1683728,0.200497362,5.927348299,rest
-0.013329125,0.091290005,0.984535277,-0.001453925,-0.004171619,0.008439658,180.1082262,0.109793383,5.859592822,rest
-0.019993687,0.100030541,0.987947047,0.003127772,-0.000809319,-0.00286227,180.1842462,359.9415626,5.794541673,rest
-0.01875951,0.103915222,0.985022664,0.00465494,-0.006000211,-0.006526354,180.1584964,359.9337666,5.753897352,rest
-0.014069632,0.096631445,0.991358757,0.008929212,0.011407804,0.009354708,180.1699574,359.9721587,5.775099967,rest
-0.022462046,0.098816581,0.983316779,0.001293045,-0.008444445,0.006298511,180.267875,0.068495825,5.826428838,rest
-0.020981029,0.104400806,0.984535277,0.004346121,-0.001114681,-0.005917379,180.23244,0.180738812,5.893685711,rest
-0.025670907,0.099059373,0.983560503,-0.003595095,-0.011802616,0.001106419,180.3053318,0.170656585,5.954494885,rest
-0.022462046,0.094931901,0.985997438,-0.000846069,-0.004775513,0.010572961,180.3305625,0.128554379,5.910390646,rest
-0.01875951,0.094203517,0.983316779,-0.006037209,-0.00752092,0.009037537,180.3878541,0.023394225,5.864912259,rest
-0.020487361,0.092989556,0.981610894,-0.006342225,-0.009350952,0.013005549,180.428726,359.981763,5.871843193,rest
-0.016044317,0.096874237,0.984291553,0.002819657,0.00500194,0.011170445,180.5040493,0.129835573,5.891936329,rest
-0.019253181,0.099302165,0.985022664,0.002819639,0.000421014,0.002922335,180.5542375,0.154164987,5.858994327,rest
-0.025424073,0.095660269,0.986241162,-0.010922745,-0.004769599,0.002616961,180.4937903,0.160945777,5.804570526,rest
-0.018019002,0.094203517,0.982585669,0.005263779,0.004698062,0.010555856,180.5669007,0.206577471,5.835159955,rest
-0.022462046,0.097602613,0.982098341,-0.005425766,-0.015152112,0.00719436,180.6034285,0.191151128,5.842169009,rest
-0.02270888,0.096388653,0.980392396,0.000988197,-0.017286858,0.005666384,180.5703841,0.167009144,5.827428607,rest
-0.022955714,0.097117029,0.986728549,-0.001455512,-0.008732056,0.001389233,180.5994944,0.107163667,5.848066878,rest
-0.020487361,0.099059373,0.985266328,0.005874209,-0.000789478,-0.005634426,180.5182834,0.062718512,5.841780969,rest
-0.020734195,0.098816581,0.982098341,-0.002066948,-0.009033931,-0.000441009,180.4195462,0.047291023,5.856762989,rest
-0.021227866,0.100273333,0.987703323,0.003430851,-0.002618389,0.002923686,180.4274009,0.059144556,5.800898018,rest
-0.013329125,0.094446316,0.976249576,0.002820246,-0.016057972,0.020022735,180.6593268,0.283356988,5.737923674,rest
-0.023449387,0.105129182,0.988921821,0.003432352,0.01021287,-0.00899256,180.6764706,359.8596012,5.626064385,rest
-0.031101292,0.096388653,0.979173958,-0.005119786,-0.022160174,0.002308661,180.5985381,359.9842941,5.707037559,rest
-0.020981029,0.102215677,0.988678098,0.002211656,-0.013908751,-0.014184101,180.6180998,359.7569592,5.614939715,rest
-0.018019002,0.100758918,0.985510051,0.000379141,-0.002301654,-0.005021064,180.6158868,359.7817796,5.614500875,rest
-0.01530381,0.097845405,0.985997438,0.008013964,0.011137523,0.002613503,180.6455845,359.7586884,5.619126621,rest
-0.017772166,0.090561636,0.978199124,-0.002676483,-0.013904678,0.010552783,180.6490132,359.7150458,5.728463862,rest
-0.014810139,0.098816581,0.985753715,0.0156474,-0.064287543,-0.001053263,180.5639227,359.2415527,5.730909497,rest
-0.011107604,0.095903061,0.986484826,0.005566925,-0.009004949,0.004138998,180.5165485,359.3824376,5.738607547,rest
-0.019006344,0.098816581,0.981854618,-0.005732741,-0.012363667,0.000778017,180.6001227,359.546232,5.707788879,rest
-0.021721536,0.110227831,0.986241162,0.001903571,-0.004114872,-0.013577102,180.7024526,359.4746138,5.656695222,rest
-0.01875951,0.102701262,0.995501637,0.021446388,0.046573609,-0.033115391,179.987656,0.268765996,5.837215415,rest
0.015758984,0.080607139,0.983560503,0.0104497,0.1061185,0.11011488,180.9603879,0.745444658,5.84476192,rest
-0.016291153,0.096145861,0.986241162,0.003424276,-0.006887859,-0.01297038,180.7698393,0.625792337,5.824071569,rest
-0.010120261,0.09104722,0.987703323,6.62208E-05,0.004720725,0.003526072,180.4366353,0.445361044,5.656682843,rest
-0.017772166,0.096388653,0.987947047,0.013196699,0.021514839,-0.01510051,180.1829758,0.669258487,5.764768452,rest
-0.035544332,0.104643598,0.936039627,-0.002380162,0.007769717,0.021244187,181.0668432,0.915348655,5.665505313,rest
0.016971214,0.091532797,1.001350403,-0.004819941,-0.019097596,0.024904732,181.3341905,359.2220494,5.19986485,rest
-0.010367097,0.107071526,0.976005912,0.03304879,0.038927518,-0.129011065,179.7780512,359.7946951,5.305752419,rest
-0.064177267,0.138391778,0.999157071,0.008612119,0.016321735,0.016977513,180.9581066,0.367700433,5.620412404,rest
-0.027645594,0.100516126,0.969669759,0.003723621,-0.033459008,0.008424395,180.7396635,0.41837414,5.886577192,rest
-0.091082357,0.123338632,0.980148733,-0.020098902,-0.049947076,0.016667709,181.0487569,0.596333358,6.058224115,rest
-0.070348166,0.109742239,0.972106695,-0.011546832,-0.094826892,-0.029443216,180.6350387,0.355180109,6.196420613,rest
-0.019500017,0.107314318,0.98745966,0.001588169,0.020930488,0.103391312,181.6174931,0.234655178,6.111759564,rest
-0.016291153,0.113141336,0.992333591,-0.002074495,-0.023042403,-0.092063099,180.6490952,359.8278197,5.933980412,rest
-0.025177237,0.109013863,0.976249576,-0.004517052,-0.011435878,0.056974042,181.0041284,359.9356642,5.926020681,rest
-0.03060762,0.112412959,0.986972272,0.012584079,-0.001968484,-0.039532036,180.5992894,0.163403698,6.060353853,rest
-0.025177237,0.112655751,0.98404789,0.00067278,-0.007769052,0.005676366,180.5905741,0.14727398,6.0623837,rest
-0.03677851,0.114840887,0.979661286,-0.009099871,-0.027007656,0.007812579,180.6306947,0.124957657,6.052160187,rest
-0.020487361,0.110713415,0.985997438,0.006171949,-0.005012829,-0.014786219,180.4804168,359.9176562,5.989493202,rest
-0.021968372,0.11362692,0.987947047,0.018691026,0.032548435,-0.010507899,180.4530688,0.252527542,6.115417557,rest
-0.019253181,0.100030541,0.985997438,-0.000244785,0.000174766,0.02338979,180.6131957,0.130755687,6.061294285,rest
-0.021227866,0.10100171,0.982098341,-0.004216731,-0.02120279,0.011477822,180.4509514,0.146802176,6.174508512,rest
-0.033569649,0.1175116,0.982829392,0.000364434,-0.007151084,-0.0196735,180.4230432,0.171522605,6.20414641,rest
-0.023449387,0.105857559,0.988921821,0.007388059,0.014837016,0.01361612,180.4655817,0.310268413,6.226676643,rest
-0.029126607,0.110956207,0.98063612,-0.004522391,-0.017228344,0.002320021,180.470554,0.231610514,6.201550512,rest
-0.026164578,0.110713415,0.983073056,-0.000246141,-0.010811433,0.004152392,180.4753762,0.132390624,6.17799447,rest
-0.029373443,0.108528279,0.986484826,-0.001163404,-0.006533777,0.001708372,180.4689148,0.162709233,6.235384707,rest
-0.034063317,0.112898543,0.984291553,0.000669047,-0.010196963,0.000790463,180.5530081,0.213917136,6.254552353,rest
-0.027398758,0.105371974,0.979661286,-0.003301591,-0.004698787,0.015447821,180.630039,0.31480526,6.282199251,rest
-0.023696221,0.105129182,0.986972272,0.004334595,-0.00378033,0.008726873,180.6537807,0.261965342,6.213781246,rest
-0.033075977,0.108528279,0.985510051,-0.004522301,-0.015079128,0.01269309,180.817391,0.308065971,6.201407078,rest
-0.023202552,0.111927383,0.985022664,0.004334562,0.004469588,-0.000744268,180.7163043,0.246906856,6.203439059,rest
-0.033075977,0.12042512,0.996232748,0.003112659,0.002333334,-0.008686663,180.8781251,0.137115968,6.267058856,rest
-0.007158234,0.102701262,0.990627706,0.014411185,0.024628866,0.007501505,180.7400733,0.005582352,6.317351673,rest
-0.028139263,0.11508368,0.984535277,0.011659071,0.005079102,-0.032811206,180.6975895,0.183867719,6.475798402,rest
-0.019500017,0.110713415,0.985510051,0.002191368,0.009966669,0.003837971,180.8766908,0.076159444,6.38643861,rest
-0.087626651,0.113141336,0.947737038,0.036085423,0.068900168,0.049032733,181.6845519,2.734746272,7.351458962,rest
-0.056772202,0.11508368,0.980392396,-0.010643698,-0.067006856,0.082012594,181.5857054,2.220949561,7.284711792,rest
-0.027151922,0.101487294,0.983804166,0.001879159,0.003854569,0.014815331,181.5718811,2.012216632,7.197334036,rest
-0.031348128,0.105371974,0.976249576,0.001267433,0.000493685,0.013897223,181.5327441,2.091633376,7.210673395,rest
-0.034310155,0.11362692,0.985510051,0.006458569,-0.005309684,0.004122545,181.5107509,2.108638626,7.194301432,rest
-0.03060762,0.110713415,0.983560503,0.003098544,-0.003170138,0.003206388,181.4205514,2.027613159,7.14107889,rest
-0.031841796,0.109013863,0.983316779,0.006152011,-0.006833041,0.005342838,181.3977522,1.90280746,7.114859929,rest
-0.03060762,0.109013863,0.981610894,0.004013691,-0.008664327,0.023358602,181.45697,1.860368933,7.060489062,rest
-0.031841796,0.112412959,0.977711737,-0.002705991,-0.007746279,0.004724584,181.5530434,1.761332471,7.022601148,rest
-0.034556992,0.111198999,0.981854618,-0.003621507,-0.014768355,0.005332847,181.6272602,1.679017592,6.960598399,rest
-0.028879769,0.112655751,0.985510051,0.007678721,0.00355758,-0.000775867,181.5836017,1.632053852,6.915403464,rest
-0.038259525,0.112412959,0.980392396,-0.005148411,-0.014765145,0.005025418,181.590828,1.574800325,6.897180519,rest
-0.031348128,0.108285487,0.982585669,0.004929572,-0.000715323,0.00472013,181.4959294,1.570588553,6.902952029,rest
-0.040234212,0.112412959,0.978442848,-0.009118311,-0.022700874,-0.00016847,181.5101088,1.414235811,6.856794037,rest
-0.028386101,0.10488639,0.985266328,0.003708769,-0.002847193,0.010522407,181.3146288,1.420291094,6.847021317,rest
-0.035050664,0.108042702,0.981854618,0.004012521,-0.001014469,-0.000165665,181.104259,1.45865616,6.904749223,rest
-0.038259525,0.115326472,0.983073056,0.001569178,-0.002846526,-0.001999219,181.1576847,1.456814356,6.859032632,rest
-0.037025347,0.111198999,0.982098341,0.001874473,-0.013533639,-0.070106931,181.2550832,1.359927696,6.854112334,rest
-0.032335471,0.110956207,0.981610894,0.002484966,-0.001315234,-0.000773299,181.0937951,1.319452315,6.846001058,rest
-0.035050664,0.108528279,0.981123507,-0.005761236,-0.01292011,0.006555508,181.0882354,1.360733232,6.834348755,rest
-0.028879769,0.108528279,0.981610894,0.00095791,0.011206806,0.00502777,181.0554095,1.426479565,6.809745133,rest
-0.026905084,0.110227831,0.985753715,0.008897815,0.008457165,0.00349993,181.0407382,1.424870949,6.806415843,rest
-0.035297498,0.109256655,0.982342005,0.00309379,-0.015362808,0.008995347,181.0660919,1.338923904,6.824737398,rest
-0.027892428,0.10634315,0.979661286,-0.009122163,-0.009252159,0.009910173,181.0277062,1.279225276,6.79710288,rest
-0.019746851,0.107071526,0.992333591,0.007370804,-0.03887099,-0.000475314,181.0045656,0.966717654,6.748485593,rest
-0.007158234,0.102215677,0.985022664,-0.027750621,-0.087415025,-0.010858722,180.8079517,0.118105697,6.651075143,rest
0.056974791,0.092989556,1.000862956,-0.135568336,-0.336953491,0.098791584,181.0219279,353.8197507,3.383411258,rest
0.130435914,0.103915222,0.974299967,0.275543988,-0.13048102,0.110398024,182.3536099,350.406937,5.379867229,rest
0.209473267,0.118239984,1.008173943,-0.027750621,-0.196759909,-0.113789521,181.1601709,348.3042675,5.246347276,rest
0.210685506,0.159514725,0.924098432,0.201018408,0.081794649,0.147355378,183.1735194,348.4167394,5.891178178,rest
0.169712141,0.1245526,0.916056454,-0.259573966,1.123930812,0.153464034,184.6853682,358.2115377,4.047874899,rest
0.041700698,0.118482776,0.946762264,-0.04485485,0.601640999,-0.223439828,183.3033204,4.675291381,2.415174314,rest
-0.020240523,0.074294522,0.999644458,-0.030191546,0.13065289,0.054804686,183.1041384,8.047088116,2.139027204,rest
-0.124651998,0.086191364,0.99769491,0.001878724,0.082998425,-0.142492816,182.7286692,10.32479399,2.160921589,rest
-0.044430416,0.093960725,0.974056304,0.034560017,-1.238608479,0.129953086,182.3206474,356.7369111,2.82380084,rest
0.148134455,0.069438681,0.999888182,-0.025304779,-0.426768601,-0.006269864,180.8557221,349.9683082,1.362022323,rest
0.236627221,0.074051738,0.953585804,0.039749257,0.024046248,-0.085058391,180.4290265,348.9518386,0.904459733,rest
0.313482583,0.114355303,0.896317005,0.007363666,0.11964713,-0.074060313,180.344619,346.3527527,4.78075249,rest
0.244385481,0.09226118,0.919711947,-0.059520334,0.097345836,-0.05816704,179.9795418,345.526182,5.904117971,rest
0.23977901,0.090076044,0.953829467,-0.013394754,-0.034595333,0.070408523,180.2320165,345.4250713,5.507783865,rest
0.253598422,0.109985039,0.961140394,-0.017970299,-0.107883394,-0.071915939,180.0533524,344.7222312,5.159467696,rest
0.215776876,0.072352186,0.983804166,-0.083938979,-0.179969832,-0.044121251,180.1176518,345.5749171,5.028646949,rest
0.241476133,0.052685987,0.944081604,0.051673107,0.396076113,0.057282381,180.3516268,348.1223548,5.081700443,rest
0.145467564,0.052928779,0.984779,-0.017965531,0.621790826,-0.012050826,180.6162283,353.042123,4.730053276,rest
0.043882709,0.044431042,1.033518314,-0.013078608,-0.172028571,-0.046564713,180.7887179,354.7130289,5.73392844,rest
0.148376897,0.047830135,0.990140319,0.017461024,0.071714729,0.076531842,180.1043193,353.8513361,5.80044253,rest
0.116374038,0.069924265,1.011341929,0.000967603,0.002689637,-0.020592988,180.0094753,351.8705014,5.53608945,rest
0.08509852,0.059969768,0.974787354,-0.018572321,-0.046779934,-0.025471587,179.5018657,351.6104991,5.089297748,rest
0.094796352,0.062397692,0.982585669,0.011664003,0.037517298,0.018201331,179.5769021,351.5927774,4.951589181,rest
0.106676206,0.046373382,0.976249576,-0.024985809,-0.142370552,0.047824278,179.9542837,349.2598161,4.821717403,rest
0.079764709,0.050743647,0.977468073,-0.053991735,0.050961357,0.013310935,179.8082543,349.6145377,4.449199739,rest
0.062551044,0.051229235,0.971619308,-0.006040629,-0.135329053,-0.008369025,179.4425796,349.5710687,4.44550418,rest
0.093099229,0.049286895,0.963821054,-0.00848249,0.058304023,0.027363209,179.3976779,349.9466608,4.293518384,rest
0.077582695,0.056327876,0.978442848,0.004040614,0.020430824,0.009950167,179.498232,350.165051,4.189073266,rest
0.097463258,0.048801307,0.992820978,-0.016728006,0.038750347,0.003540324,179.5433522,350.5810599,4.19175753,rest
0.088250317,0.043217078,0.998913348,-0.003286138,-0.013782745,0.018196784,179.681404,350.9325294,3.857723287,rest
0.08509852,0.052685987,0.972837806,0.00862528,0.114172645,0.013001973,179.7897854,352.0175622,3.765712101,rest
0.061581265,0.039089605,0.983804166,-0.003902841,-0.029378543,0.033764701,179.9699795,352.3211257,4.09387665,rest
0.092614345,0.046616174,0.975762188,0.016257342,0.141047075,0.023377344,180.0811923,352.5246773,3.796131202,rest
0.088735208,0.048315722,0.981123507,0.02266667,-0.086488269,0.024900503,180.3168201,351.9568896,4.291130806,rest
0.088492759,0.056570668,0.995501637,0.011669107,-0.026615836,-0.018468585,180.2238613,351.6975678,4.319109822,rest
0.09382657,0.05681346,0.981123507,0.004337452,0.004843144,-0.000752609,180.0773674,351.8054882,4.34078372,rest
0.086553194,0.060455348,0.979905009,0.001587361,0.021333026,-0.010523954,179.9683129,352.0523389,4.373759873,rest
0.087038085,0.058998596,0.986241162,-0.002381247,0.062555358,0.003830568,179.9692555,352.5797371,4.183709006,rest
0.085340962,0.053899955,0.983073056,0.002810452,0.017338308,0.016961228,180.0834462,353.8609824,4.184242187,rest
0.073946007,0.06142652,0.989652932,0.006167732,-0.008012349,-0.010219648,179.9645973,354.0349542,4.272136904,rest
0.079279818,0.058998596,0.986484826,0.003722053,0.006357269,0.002607737,179.8565984,353.1063229,4.342462666,rest
0.066187732,0.0587558,0.969669759,-0.002082337,-0.003722996,0.000471926,179.6587824,353.392472,4.371073474,rest
0.079037368,0.053899955,0.988434374,0.002803031,0.040860198,0.020627767,179.6581814,353.8396863,4.362345773,rest
0.06594529,0.06021256,0.99501425,-0.005747505,-0.052591771,-0.006553852,179.4878774,353.6225977,4.236521309,rest
0.080007151,0.057784636,0.983316779,-0.008494485,0.017660517,0.030395601,179.6737542,353.4000313,4.120931456,rest
0.067642413,0.055842295,0.993552089,0.009524457,-0.060826443,-0.012055956,179.507562,353.4478896,4.104443807,rest
0.083158948,0.049529687,0.982585669,-0.007884543,-0.004934007,0.047800805,179.8417085,353.6879836,4.010726781,rest
0.066187732,0.05827022,0.984779,-0.017045043,-0.007985631,-0.015420285,179.6317349,353.4416647,4.019270067,rest
0.086310744,0.053414367,0.985753715,0.001281515,0.001475835,0.0346619,179.8582649,353.8911381,3.889307789,rest
0.084613629,0.051714819,0.986972272,-0.000246305,-0.053191148,0.021524178,179.927564,354.0648427,3.8570646,rest
0.073703557,0.062640481,0.99428314,-0.005437855,-0.018364321,-0.0239808,179.7367832,353.8405401,3.844215734,rest
0.096493475,0.056085087,0.99842602,0.017772216,0.036913116,0.011140627,179.8212863,354.0251862,3.862088631,rest
0.103039511,0.056085087,0.980148733,0.008608706,0.009717357,0.007171506,179.6474306,354.5497643,3.839708236,rest
0.077582695,0.064097241,0.977955461,0.007384829,-0.05410054,-0.030998344,179.1661345,353.8152577,4.065438731,rest
0.100615054,0.055113915,0.986972272,-0.00543825,0.061652526,0.00778907,179.2388077,353.7166072,3.864084327,rest
0.088250317,0.05948418,0.989409208,0.047391057,-0.034558173,0.03740881,179.5081631,354.062447,4.097393344,rest
0.085825853,0.068224713,0.986484826,0.002187099,-0.011031279,-0.011152729,179.4196848,353.5349037,4.092322355,rest
0.054792777,0.068224713,0.965283275,-0.024689188,0.007909505,0.007476031,179.4788752,353.3585623,4.199094434,rest
0.071521543,0.068467505,0.99769491,0.007991783,0.039666906,0.008693798,179.7477934,353.7554278,4.059026891,rest
0.068369746,0.067739129,0.978686571,0.084334478,-0.000644932,0.009913785,179.6816226,352.8351401,5.417695377,rest
0.055277668,0.109742239,0.964308441,0.002775416,0.0506626,-0.204779014,177.9872849,353.4820017,6.351391629,rest
0.019153228,0.105857559,0.967232823,0.072108626,0.212847322,-0.064280003,177.3709969,357.2699467,8.371896054,rest
-0.010120261,0.115812063,1.000619292,0.014687289,0.137100026,0.010550985,178.081883,0.145367636,8.205050755,rest
-0.058253214,0.116297647,0.952854693,-0.024100786,0.073251016,0.041088779,178.520709,1.866328487,8.250867664,rest
-0.095772229,0.102215677,0.997938573,0.001250245,-0.164667547,0.047191579,178.8107051,1.520893804,7.979961871,rest
-0.066398792,0.10488639,0.993552089,0.022013906,-0.106915511,0.016336609,179.0071551,0.514794826,8.069913754,rest
-0.048379786,0.094931901,0.998669684,0.007051222,-0.087369099,0.033742689,178.9936996,1.492955982,7.677360585,rest
-0.058253214,0.113141336,0.969426036,-0.033869699,-0.00306333,0.027013175,179.5113323,0.964449285,7.399351395,rest
-0.049613964,0.109256655,0.988678098,-0.003626641,-0.042764027,0.017233189,179.8686332,0.939186122,6.964763107,rest
-0.068373479,0.108771071,0.969913483,-0.014926579,-0.007637346,0.034632578,180.3445917,0.871175207,7.070629331,rest
-0.064177267,0.095417485,0.983804166,-0.005155645,-0.016183199,-0.026143335,180.0838287,0.841374558,7.168114487,rest
-0.052082323,0.086191364,0.988434374,-0.077532433,-0.000297701,-0.02186536,179.979774,0.724342042,6.796966703,rest
-0.04072788,0.080121547,0.971619308,-0.001480468,-0.041822456,-0.010257643,179.7601288,0.111010518,6.680672914,rest
-0.00567722,0.073808946,0.992577255,0.020514056,0.039123964,-0.045982689,178.9604092,359.0627896,5.832710478,rest
-0.04368991,0.082063891,0.986972272,0.013481598,0.03300152,-0.00108508,179.0536686,0.090992981,6.228154098,rest
-0.037025347,0.081335515,0.994770527,0.007369675,-0.007925015,-0.002003105,179.1612441,0.227288765,6.216815984,rest
-0.027645594,0.07550849,0.981854618,-0.028057596,1.37128E-05,0.025176335,179.1840296,0.477568214,6.095399554,rest
-0.04072788,0.071866602,0.992333591,-0.007285804,-0.028687229,0.000435899,179.1384176,0.232847285,5.851862328,rest
-0.04467725,0.075994074,0.990384042,0.000348739,-0.014327798,0.003795214,179.0662908,0.185064629,5.808215285,rest
-0.029620279,0.070895426,0.983804166,0.002792548,0.024458032,0.023949217,179.1299209,0.306677735,5.700335862,rest
-0.039987374,0.077208042,0.979173958,-0.012783166,-0.040903501,0.003180563,179.0197636,0.598397516,5.644563953,rest
-0.046405103,0.078422002,0.981123507,0.023866683,0.014378285,-0.009340666,178.9318727,0.59355235,5.52471505,rest
-0.050601307,0.074537314,0.986484826,-0.001177747,0.017733622,0.020889483,179.3315071,1.033254476,5.407238358,rest
-0.04072788,0.073566154,0.989165485,-0.006979927,-0.005783949,0.014470132,179.6784397,1.215240064,5.356388026,rest
-0.032829139,0.074780107,0.987947047,0.007985517,0.011929444,0.005001281,179.5941005,1.253255509,5.277713639,rest
-0.047392443,0.076236866,0.987215936,-0.00362106,-0.010667698,-0.012098842,179.2798435,1.042771491,5.24195461,rest
-0.045170926,0.073323362,0.993795693,0.011343945,0.010714633,-0.01056822,179.0545292,0.905782869,5.218347342,rest
-0.041221555,0.074051738,0.984779,0.004012216,-0.000282897,0.015388878,179.2398596,1.133462956,5.246115049,rest
-0.044183582,0.073566154,0.986972272,-0.009732366,-0.003945399,0.008972198,179.3141994,1.151571602,5.288866057,rest
-0.039000034,0.072594978,0.985022664,-0.001790099,0.010714207,0.006832344,179.3379275,1.212294331,5.173134478,rest
-0.041221555,0.07696525,0.987703323,0.003097713,-0.007608652,-0.000498658,179.3233245,1.094108473,5.047304891,rest
-0.051835485,0.077208042,0.982342005,-0.001483969,0.000639329,-0.001104367,179.2907172,1.12614206,5.040122947,rest
-0.039000034,0.072352186,0.990871429,-0.001178879,-0.005164539,0.007140923,179.2597901,1.277160958,4.986494009,rest
-0.032582305,0.075265698,0.993064702,0.008593798,-0.00790995,0.002256359,179.016608,1.118103141,4.926965069,rest
-0.044924092,0.07550849,0.98404789,-0.000569683,-0.003936818,-0.005071821,178.8615218,1.004546764,4.924770017,rest
-0.047639281,0.078664787,0.979173958,0.005233273,-0.018596051,-0.069820002,178.9618572,1.125584439,4.905230553,rest
-0.042702567,0.07308057,0.988190711,-0.017063908,-0.006379601,0.011726219,179.1035973,1.308083999,5.044960002,rest
-0.045911428,0.07162381,0.992577255,0.004620284,0.014385343,0.002562184,179.1355763,1.630567325,5.029543838,rest
-0.043443073,0.076479658,0.988190711,0.005840413,0.011943593,-0.002019823,179.1430758,1.471100337,5.072365709,rest
-0.039000034,0.072352186,0.980879843,-0.005765036,0.019578606,0.007141971,179.132448,1.410249328,5.032421055,rest
-0.041715223,0.07162381,0.979173958,0.000648782,-0.00424384,-0.002630285,179.0110892,1.43618932,4.99698646,rest
-0.04862662,0.072352186,0.975274801,-0.003322311,0.000337515,0.007447319,179.0205149,1.523922246,5.010955051,rest
-0.042702567,0.074780107,0.988921821,0.002481155,0.011636667,0.006834782,179.0423852,1.559549793,4.923812083,rest
-0.034803826,0.067739129,0.978930235,-0.00210027,0.013772454,0.021492722,179.0297083,1.629114736,4.913056242,rest
-0.04541776,0.075022906,0.986484826,0.001258966,-0.019821215,-0.005078328,178.9453282,1.596651167,4.880697367,rest
-0.042949405,0.074537314,0.981854618,0.006449308,0.007360278,0.006221855,178.9069698,1.634130016,4.915168905,rest
-0.036531676,0.071381018,0.986728549,-0.002712652,0.010108086,0.010800775,178.9623217,1.683171308,4.847083872,rest
-0.047639281,0.067496337,0.978442848,-0.004850335,-0.004852833,0.006830559,178.8266468,1.451156825,4.801054373,rest
-0.050848145,0.078664787,0.985022664,0.002480578,0.002173904,-0.009662574,178.9050437,1.389381606,4.703888102,rest
-0.045911428,0.07308057,0.986241162,-0.002101641,-0.008819267,0.001638328,178.8774088,1.396128553,4.745842112,rest
-0.047886115,0.07550849,0.986484826,-0.002407316,-0.00240537,0.006829269,178.9299466,1.494517748,4.788637516,rest
-0.042455733,0.07550849,0.986484826,0.007671103,0.001869651,0.006523526,178.9025849,1.55935652,4.760990191,rest
-0.034556992,0.07308057,0.992089868,0.009807687,0.010419857,0.009881821,178.9255753,1.624142572,4.764517557,rest
-0.052822832,0.075022906,0.976736963,3.42391E-05,-0.018286556,-0.002032466,179.1609436,1.515309377,4.723828839,rest
-0.034063317,0.068710297,0.983316779,0.007056974,0.004313393,0.010794856,179.108556,1.639415729,4.764567503,rest
-0.04072788,0.073323362,0.981854618,0.004002512,-0.023782002,-0.000811379,179.0577531,1.584872933,4.7003411,rest
-0.047639281,0.075265698,0.988921821,0.002169188,0.004014231,-0.005695581,178.9162999,1.49684887,4.683870952,rest
-0.038012687,0.070409842,0.98136723,-0.001801442,0.001873907,0.017512856,179.0187117,1.644927691,4.69620542,rest
-0.043196239,0.075265698,0.988678098,-0.003023181,-0.006676266,-0.001119715,179.0676295,1.635180584,4.681297251,rest
-0.037519019,0.074051738,0.994526803,0.00369605,0.002792314,0.003765564,179.1236098,1.581119744,4.619984778,rest
-0.043196239,0.074780107,0.986728549,0.011941981,-0.010033533,-0.001121639,179.1091571,1.541288855,4.5724441,rest
-0.034310155,0.071138225,0.979417682,0.002473406,0.012264143,0.008651256,179.0440244,1.306755847,4.548692117,rest
-0.04467725,0.079150379,0.987947047,0.006749559,-0.006668661,-0.016086914,179.0341343,1.11940632,4.476393711,rest
-0.033322815,0.064825617,0.978199124,-0.00546737,0.001275858,0.014759421,178.9858585,0.942792782,4.459308419,rest
-0.04467725,0.074051738,0.983073056,-0.00058046,-0.012769463,0.004679248,178.9649991,0.840690632,4.441989621,rest
-0.040234212,0.068953097,0.982342005,-0.014323086,0.000977045,0.031242184,178.9822385,0.780859989,4.403299161,rest
-0.048132952,0.072837777,0.986728549,-0.006074876,-0.010321464,-0.069546521,179.0874234,0.738981165,4.330871408,rest
-0.042208895,0.070409842,0.988678098,0.003392093,0.008004094,0.004061435,179.059324,0.781664778,4.415564473,rest
-0.041468389,0.070652634,0.98404789,0.007055942,-0.000240523,0.003451086,178.9473772,0.724708791,4.42102777,rest
-0.044183582,0.076236866,0.990871429,0.008581508,0.005867369,-0.009681283,178.9380472,0.819470622,4.438200147,rest
-0.043443073,0.073808946,0.991846144,0.003083378,6.4671E-05,0.002534613,178.9754903,0.88473388,4.394781488,rest
-0.040481046,0.071381018,0.987947047,0.003999028,0.010753309,0.009558052,178.9783043,0.985419673,4.370361854,rest
-0.051094979,0.075022906,0.987703323,-0.001192745,-0.004821433,-0.000216867,179.0256102,0.965178727,4.341227682,rest
-0.040481046,0.071138225,0.986241162,0.002776816,0.005867613,0.008639836,178.9684825,1.110635503,4.366084448,rest
-0.046405103,0.073323362,0.98136723,-0.002721056,-0.000547001,0.008331507,179.0461964,1.23506234,4.370925772,rest
-0.034556992,0.067496337,0.987703323,-0.000888113,0.004951924,0.017797023,179.0493383,1.152771794,4.331355498,rest
-0.046405103,0.075994074,0.983316779,0.001860954,-0.003597999,-0.005416391,179.0713861,1.129656299,4.323388509,rest
-0.04862662,0.071381018,0.982098341,-0.003637277,-0.00909334,0.004967425,179.030446,1.143303551,4.367790715,rest
-0.046898775,0.071866602,0.992820978,-0.004858498,-0.016726274,0.006492976,179.0508,1.147764838,4.358896955,rest
-0.047392443,0.072109394,0.989896595,0.004608441,-0.013363734,0.003743113,179.0657171,1.133034041,4.41319952,rest
-0.040481046,0.066767953,0.988190711,-0.004247647,-0.010917906,0.010460173,179.0933794,1.113156697,4.351573711,rest
-0.037765853,0.070409842,0.988190711,0.00827308,-0.001142258,-0.003282158,178.9397138,1.090710988,4.375522489,rest
-0.048379786,0.073808946,0.983804166,0.000942331,-0.013049299,-0.006028839,178.7839991,0.924598759,4.414577084,rest
-0.039000034,0.069195889,0.985997438,0.000636354,-0.005717834,0.008629751,178.8237645,0.959007438,4.450809957,rest
-0.047145609,0.075751282,0.987703323,0.002468687,-0.014878705,-0.002671225,178.8248573,1.027491824,4.44334456,rest
-0.043936744,0.071138225,0.983073056,-0.004861418,-0.008769611,0.007711874,178.8441594,1.123596214,4.437680625,rest
-0.054303844,0.072109394,0.983560503,-0.007610314,-0.024649767,0.007404472,178.9237448,1.295727653,4.464954851,rest
-0.045911428,0.071381018,0.97722435,-0.003334314,-0.004489362,0.003127062,178.9809271,1.262350226,4.49198191,rest
-0.045664594,0.072837777,0.986484826,0.005521864,0.010171174,0.0843646,178.9839324,1.254109603,4.522196959,rest
-0.039493702,0.071866602,0.989652932,0.008575033,-0.00479261,0.006173269,178.9825254,1.196433778,4.522350639,rest
-0.042702567,0.077450834,0.979905009,0.004908267,-0.001431435,0.000676031,178.9036367,1.10380478,4.59371587,rest
-0.056278527,0.081578307,0.989652932,0.000937488,-0.017309053,-0.013374066,178.9891917,0.985246463,4.619150214,rest
-0.045170926,0.073566154,0.986484826,0.005516894,-0.009370655,0.012279795,179.0512917,1.342618609,4.753092785,rest
-0.042949405,0.072109394,0.982585669,-0.00425652,0.007426344,0.010139491,179.1082419,1.524137397,4.721307646,rest
-0.050107639,0.076479658,0.988434374,0.003989104,-0.002041757,-0.006963261,179.0308558,1.578025028,4.754053707,rest
-0.039493702,0.07550849,0.989896595,-0.001508817,-0.002649823,0.003726659,178.9944646,1.424778208,4.722831205,rest
-0.050107639,0.071381018,0.986972272,-0.007921856,-0.005397048,0.006778763,179.0715228,1.460994966,4.704133562,rest
-0.046405103,0.077208042,0.986972272,-0.001813054,-0.001120247,-0.002683838,178.3016102,1.487894278,4.640567126,rest
-0.051341813,0.074294522,0.986728549,-0.004561082,-0.027690731,-0.001768044,178.3813731,1.623779078,4.598321552,rest
-0.039000034,0.069681473,0.98404789,-0.002728488,0.014460666,0.009531817,178.3719201,1.391409959,4.61107565,rest
-0.051341813,0.076722458,0.986241162,-0.007615309,-0.025852619,0.000978096,178.5144935,1.424021444,4.631528224,rest
-0.047886115,0.076236866,0.986972272,0.004906856,-0.002942119,-0.001160179,178.5490133,1.274554814,4.614022449,rest
-0.049120296,0.07308057,0.981854618,-0.004256178,-0.010882318,0.005557578,178.6344589,1.327024434,4.648416294,rest
-0.044430416,0.075265698,0.981854618,0.002767362,0.02118469,0.003113486,178.6745931,1.472516001,4.751782242,rest
-0.055784855,0.077208042,0.990627706,-0.001813233,-0.018825009,0.003110521,178.8772175,1.594799119,4.711243789,rest
-0.044924092,0.07016705,0.988678098,0.011011235,-0.00599407,0.006469418,178.8532162,1.513780055,4.800666333,rest
-0.047639281,0.074294522,0.980879843,-0.001205325,-0.004769161,0.009520189,178.9615567,1.410635341,4.739430699,rest
-0.040481046,0.070409842,0.985266328,0.005207371,-0.003852433,0.008602749,178.9455058,1.472734353,4.735769291,rest
-0.050601307,0.07550849,0.988678098,-0.000595238,-0.018206049,0.003408611,179.0136847,1.557573414,4.689957931,rest
-0.053069666,0.073566154,0.97381264,-0.002428502,-0.01484509,0.00524009,179.0150098,1.66998947,4.776770489,rest
-0.045911428,0.075265698,0.985266328,0.008261818,0.003786424,0.002184417,179.0734352,1.672919194,4.661534953,rest
-0.052082323,0.074537314,0.993064702,-0.007924397,-0.020948313,-0.002091548,179.0879289,1.520452189,4.577307194,rest
-0.035297498,0.072109394,0.98745966,0.003985729,0.011732306,0.008598299,178.9967868,1.444231014,4.613398341,rest
-0.045911428,0.069438681,0.987215936,-0.005787324,-0.005981047,0.004924807,180.0476151,1.380135665,4.598733925,rest
-0.038506363,0.071138225,0.993552089,0.001236852,0.003794203,0.008283221,179.9723837,1.35493152,4.579467242,rest
-0.051094979,0.075022906,0.979905009,0.001848456,-0.005365422,-0.005761864,179.9321949,1.315111517,4.513113235,rest
-0.044430416,0.07550849,0.988190711,0.005207054,0.0068519,0.003705741,179.8723215,1.315352174,4.522897481,rest
-0.045911428,0.074780107,0.988434374,0.0033742,-0.001392812,0.003398784,179.8594124,1.296557415,4.486638995,rest
-0.050601307,0.071866602,0.988190711,0.001234394,-0.010856897,-0.00209891,179.7694315,1.152113534,4.617202756,rest
-0.045664594,0.075994074,0.990627706,0.003981847,-0.005664293,0.000344157,179.7298164,1.29238673,4.652862747,rest
-0.046651937,0.076722458,0.984291553,0.007035218,0.000444761,0.007373434,179.712536,1.313091915,4.64948223,rest
-0.050107639,0.07696525,0.988190711,0.002149478,0.001056591,0.001262641,179.7811384,1.306045508,4.49891754,rest
-0.047145609,0.078422002,0.982585669,-0.006705914,0.046559416,-0.006984435,179.8099072,1.530108156,4.388079792,rest
-0.046651937,0.071381018,0.982829392,-0.004262585,0.00379869,0.008279127,179.8543581,1.656419058,4.385165862,rest
-0.0533165,0.072594978,0.983316779,-0.001207083,-0.009027077,0.004612388,179.8427467,1.674679142,4.292233455,rest
-0.054303844,0.072594978,0.991358757,0.008566912,-0.004748281,-0.003634711,179.8294552,1.51940525,4.232648592,rest
-0.052329157,0.073808946,0.985266328,0.00581722,-0.010546379,-0.006687813,179.7100498,1.305516275,4.247167866,rest
-0.050848145,0.075022906,0.985510051,0.007342249,-0.000465417,-0.007907806,179.5504283,1.257999716,4.319747164,rest
-0.049613964,0.071381018,0.986241162,0.001233798,0.005642274,0.008882536,179.6144818,1.386057972,4.295813328,rest
-0.05800638,0.073808946,0.985022664,0.003676973,-0.013901934,0.001246047,179.5862458,1.340349493,4.270996689,rest
-0.048379786,0.075265698,0.984291553,0.003676917,-0.000157477,0.006131371,179.5996057,1.39895465,4.245823173,rest
-0.060968406,0.07308057,0.978686571,-0.001515593,-0.015731448,0.005213784,179.5987314,1.401666662,4.286164832,rest
-0.064917773,0.072352186,0.986241162,-0.013427906,-0.014812877,0.005523857,179.5735826,1.543376545,4.45565811,rest
-0.047639281,0.067010745,0.981123507,0.007649016,0.001382509,0.01102097,179.439506,0.926680259,3.93099841,rest
-0.077012725,0.070895426,0.984779,-0.011590835,-0.007169619,0.007659152,179.495254,1.212849284,3.839145172,rest
-0.070594996,0.068953097,0.969182372,-0.010977637,-0.005642317,0.011934304,179.395465,1.416442175,3.814676446,rest
-0.049613964,0.072352186,0.999157071,0.025060512,-0.096957318,-0.02502238,179.4674415,1.527074485,3.872058573,rest
-0.020734195,0.07016705,0.993552089,-0.023493143,0.045070782,-0.005779414,179.3275456,0.599414894,3.279945845,rest
-0.015056974,0.059726976,0.982098341,0.057431478,-0.110678717,-0.002721988,179.0670968,0.02306185,3.886514668,rest
0.003879135,0.075022906,0.964308441,0.021998316,-0.054468602,0.020182606,178.8916566,358.6988123,4.11260759,rest
0.008970499,0.078907587,0.979905009,0.040015221,-0.058425631,0.082179442,178.7693688,358.0806778,4.13679884,rest
0.01066762,0.080849931,0.989409208,0.026264902,-0.129876494,0.007348189,178.7402039,356.7812667,4.706319649,rest
0.120738067,0.092503972,1.011585593,-0.013441339,-0.186992392,-0.060763285,177.8240433,353.7400638,5.094728602,rest
0.118798494,0.088619292,0.965039551,-0.020158622,-0.016556207,-0.007922957,177.7703444,351.8187089,5.028933817,rest
0.131405681,0.070652634,0.951148808,-0.155747995,0.062227406,0.025967663,178.6968186,352.7372396,4.556401266,rest
0.135284826,0.063368864,0.989652932,-0.0222695,-0.129550919,0.011913578,178.8347338,351.1963276,4.501039595,rest
0.086553194,0.07016705,0.966745377,0.069054857,0.24674207,0.087049998,180.2851281,354.1946525,5.502682994,rest
0.014789201,0.079878755,0.975274801,-0.05464536,0.342342496,0.001223437,180.7070835,357.6386326,5.79758623,rest
0.005576256,0.079635963,0.974787354,0.009492692,0.095226012,-0.001215841,180.9277669,359.392169,5.925230513,rest
0.051156089,0.067981921,0.976249576,0.018348027,-0.076412551,0.03604278,180.6422513,357.4733465,5.921323218,rest
0.033457536,0.080607139,0.983316779,-0.087331668,-0.182092234,-0.088573724,179.1432671,354.315041,4.223781299,rest
0.071036659,0.072109394,0.97722435,0.078507945,-0.248669729,0.070855319,179.3563553,354.0194296,4.448184176,rest
0.10813088,0.074294522,0.987215936,0.026272915,-0.033646267,0.014347235,179.4819215,354.202436,4.697640613,rest
0.120253175,0.078422002,0.985753715,0.006116848,0.018877786,0.021975944,179.9649388,354.8206872,4.327546386,rest
0.138436615,0.076236866,0.976249576,0.015888181,0.01337419,0.028383898,180.1887951,355.0328171,4.385876202,rest
0.144497767,0.068224713,0.983560503,-0.002132606,0.001160676,0.022581249,179.7492961,354.44523,4.48160173,rest
0.109343104,0.086676955,0.980392396,-0.00060511,-0.041896455,-0.028419169,179.3863672,354.0247025,4.49225341,rest
0.100857504,0.080364339,0.98404789,-0.010989048,-0.014713839,0.005177476,179.3503721,354.1383756,4.519476837,rest
0.114192024,0.081578307,0.974056304,0.001227535,0.052467979,0.012199581,179.4978905,354.6631805,4.582691091,rest
0.149589136,0.07016705,0.978199124,0.00611335,0.068953425,0.028688196,179.7374252,354.5627967,4.579953893,rest
0.126556769,0.068953097,0.979173958,-0.006714873,-0.029384851,0.008834184,179.5735553,353.9095122,4.650289473,rest
0.111282676,0.082306683,0.971863031,0.007333357,-0.047089919,-0.017733803,179.2388077,353.5337797,4.740170921,rest
0.094796352,0.086919747,0.995745361,-0.010685809,-0.029976107,-0.027196743,178.9969371,353.0460115,4.798203196,rest
0.102797069,0.090804428,0.999157071,-0.005186252,0.010952439,-0.024138458,178.9191139,352.8844169,4.680857131,rest
0.142558202,0.072352186,0.981610894,0.007335819,0.046073325,0.011906877,178.8638577,352.7298399,4.65869829,rest
0.138194174,0.078907587,0.990627706,0.005196791,0.024693439,0.001527328,178.5027046,352.4699956,4.741918595,rest
0.110797785,0.081335515,0.985266328,0.005501736,-0.017758654,-0.006105767,178.3792967,352.3958232,4.716289591,rest
0.118556052,0.070895426,0.979173958,-0.00335519,0.004537396,0.031756174,179.2920559,352.3314025,4.596334394,rest
0.111767568,0.082792267,0.977711737,0.006417673,0.005147349,0.005790323,179.5979254,352.3486812,4.581902204,rest
0.137466833,0.073566154,0.987703323,0.014360305,0.028356751,0.017693218,179.6569929,352.168424,4.299803439,rest
0.118556052,0.07308057,0.975762188,-0.002438564,-0.023258371,0.011278777,179.4869212,352.2208884,4.336637368,rest
0.104251742,0.087890908,0.987703323,0.008862749,-0.017449647,-0.036363956,179.3620244,352.0159912,4.229368394,rest
0.102554627,0.083520643,0.988921821,0.013443466,0.01034006,-0.014369596,179.2430288,352.3667121,4.231857571,rest
0.097463258,0.076479658,0.978442848,0.005499929,0.020106703,0.01097744,179.4958004,353.0047153,4.404677578,rest
0.120495617,0.07016705,0.97722435,0.014050271,0.029570147,0.037846223,179.8368181,353.1790803,4.399894311,rest
0.107645988,0.080121547,0.975518465,-0.001525898,-0.017458811,-0.02506673,179.5956305,352.9060883,4.41643148,rest
0.110555336,0.083520643,0.980392396,0.004886441,0.015215483,0.010355324,179.9199279,353.1982466,4.471457192,rest
0.128253892,0.072837777,0.986484826,-0.000306249,-0.02601072,-0.005827259,179.5723669,352.9662114,4.505353713,rest
0.103524402,0.071381018,0.976493299,-0.007023789,-0.041883528,-0.000938226,179.2894741,352.6361716,4.427513889,rest
0.087038085,0.086919747,0.992089868,0.004275065,-0.013480693,-0.0195673,179.2814008,353.0991572,4.574423147,rest
0.122920074,0.076722458,0.987947047,0.000304464,0.029885873,0.021659821,179.5637472,353.227864,4.55436587,rest
0.128496334,0.065068416,0.977468073,0.001220554,0.005143918,0.019826179,179.3811489,353.3553743,4.523649228,rest
0.119768284,0.071138225,0.985266328,0.006411493,0.005754974,-2.47536E-05,179.1362729,353.2747849,4.540821605,rest
0.113222241,0.07550849,0.98745966,-0.006109063,-0.017757807,-0.001241216,179.1498377,352.9257169,4.414952317,rest
0.112010017,0.077450834,0.979417682,0.004275445,0.007592263,-1.76849E-05,179.0110619,352.9193726,4.395016703,rest
0.119040944,0.074537314,0.982829392,0.004579797,0.023468252,0.028379187,179.2922062,353.1332727,4.392754202,rest
0.096735924,0.07817921,0.982342005,0.006716721,-0.026921807,-0.014682109,179.105783,353.0208401,4.438270583,rest
0.104494192,0.083763435,0.98745966,0.006104827,0.007895831,0.011273611,179.3465198,353.092543,4.429625698,rest
0.122677632,0.068467505,0.984779,0.00182759,-0.002181329,0.000890655,179.1398383,353.0445917,4.492825438,rest
0.099887721,0.081092723,0.977711737,-0.00397509,-0.02111211,-0.008576568,179.0914806,352.7503612,4.522665254,rest
0.095766135,0.077936418,0.978442848,0.002744377,-0.029659746,0.000586647,179.0165807,352.7240565,4.497938262,rest
0.103039511,0.078664787,0.978930235,-0.003973726,0.036305368,0.019821413,179.3295127,353.0332813,4.397115278,rest
0.112252459,0.069195889,0.991115034,-0.003971495,0.079364434,-0.0012521,179.2272511,353.7739312,4.183228331,rest
0.09358412,0.07162381,0.986972272,0.015879035,-0.020203354,-0.01407662,178.9151387,353.8201217,4.343458166,rest
0.108858213,0.063854448,0.985510051,0.00579904,0.002704771,0.024401814,179.0481089,353.7678737,4.32811628,rest
0.076855361,0.075994074,0.985997438,0.137135074,0.079979226,-0.047069419,179.0903194,355.3531508,5.250466733,rest
0.098190598,0.072109394,0.989409208,0.015569907,0.055839583,0.046384063,179.9123327,356.325765,5.540321606,rest
0.259174705,0.013110799,1.015728474,0.07696186,-0.001581747,-0.048910916,179.4079642,352.3394494,6.410674255,rest
0.228141606,0.02840673,0.989652932,0.058017343,0.055521354,0.085467897,179.1068212,352.1995859,6.557872089,rest
0.200017884,0.064340033,0.980879843,0.16003257,0.014586382,0.05095296,179.3788403,353.1562512,6.389141657,rest
0.069824427,0.095417485,0.993064702,-0.0085654,0.033210803,0.021625228,180.3566811,353.9935466,6.531589094,rest
0.064248167,0.078664787,0.986241162,-0.02627638,-0.019930143,-0.017162904,180.2468517,354.1323271,6.328948481,rest
0.093099229,0.078664787,0.974787354,0.020147193,-0.043747917,-0.005858572,179.8758732,353.8873862,6.225435256,rest
0.078310028,0.079635963,0.985997438,-0.00214779,-0.066030487,-0.028453464,179.3458232,353.3125699,6.017790248,rest
0.054307885,0.098088197,0.96284622,0.014038522,0.008795379,0.006363862,179.6904199,354.2227097,6.028891867,rest
0.104979083,0.080849931,0.992333591,-0.018029002,0.115984835,0.020104386,180.1540841,355.5728046,5.541764056,rest
0.09382657,0.075751282,0.988434374,0.004879393,0.0072482,0.034143366,180.6604333,355.7494533,5.2818395,rest
0.107403539,0.061912108,0.992820978,0.016177475,0.025569046,0.019785099,180.5953826,355.8654624,5.295019204,rest
0.069097087,0.07817921,0.972594142,-0.014059223,-0.022686647,-0.020528607,180.2639818,355.7639201,5.325754201,rest
0.066915073,0.081092723,0.991358757,-0.004283044,-0.018105084,0.026801737,180.6436037,355.9475843,5.106828709,rest
0.065460399,0.074294522,0.991358757,-0.013438936,-0.0446807,-0.014425667,180.3242241,356.3554392,4.742570879,rest
0.057944573,0.076722458,0.983560503,0.012520451,-0.03734681,-0.005566821,180.141858,356.3416768,4.803199906,rest
0.105463974,0.064825617,0.981854618,0.003967311,0.015493904,0.035966568,180.1075841,356.0233367,4.787294103,rest
0.083158948,0.075022906,0.98404789,-0.004890032,-0.03397407,-0.00892739,179.6824968,355.2297651,4.819068997,rest
0.065217957,0.080607139,0.986728549,0.013737995,-0.081605218,-0.032134272,179.3278051,354.7309257,4.928769946,rest
0.080734491,0.080364339,0.985997438,0.003047854,-0.0089106,-0.003729151,179.2846793,354.6647779,4.901675866,rest
0.07467334,0.084006228,0.991846144,0.003352568,0.004220607,0.011233162,179.4783971,354.7688584,4.869194902,rest
0.08970499,0.082792267,0.983316779,0.012819875,0.009718279,0.002373477,179.6140857,354.6331537,4.816450473,rest
0.121465407,0.07550849,0.955535352,0.002127554,-0.045868054,0.038716126,179.4933143,354.3246861,5.043155124,rest
0.1040093,0.075994074,0.978199124,-0.028717211,0.06071578,0.078722998,179.2942416,354.6788306,4.985289335,rest
0.096978366,0.080849931,0.983560503,0.013126343,-0.025718071,-0.027866095,179.0341206,354.7642703,4.922757245,rest
0.085340962,0.080849931,0.992089868,0.007322378,-0.017165786,-0.021751933,178.7249863,354.9105853,4.9086179,rest
0.077340245,0.084977403,0.989165485,0.010680005,0.012455598,-0.006170153,178.8684749,355.2384169,4.96514668,rest
0.079764709,0.080849931,0.992089868,0.019533522,0.0069528,-0.004947945,178.8976398,355.7258815,5.082729667,rest
0.092614345,0.074294522,0.976736963,-0.004594237,0.008173417,0.036581028,179.1923078,355.7016574,4.97511278,rest
0.065217957,0.083763435,0.987215936,0.00120832,-0.028166987,-0.02938791,179.1068075,355.565159,4.998346095,rest
0.07855247,0.07696525,0.982098341,-0.000624835,0.009703516,0.028025638,179.3297859,355.6439585,5.006472313,rest
0.106191315,0.07016705,0.977955461,-1.43014E-05,0.009706152,0.023444062,179.1564903,355.3783696,4.981281294,rest
0.086068295,0.077693626,0.979417682,-0.00154138,-0.022356067,-0.018087851,178.6675034,354.8459858,4.981714584,rest
0.085583411,0.073323362,0.987215936,-0.004900005,-0.021741442,-0.068174958,178.7456817,354.7192277,4.879438051,rest
0.075158238,0.081092723,0.981123507,-0.005204614,-0.01196594,0.000545524,178.8056508,354.6806589,4.857055521,rest
0.093099229,0.078664787,0.978930235,0.010676291,-0.003412763,0.008483709,178.9258485,354.6304553,4.860667837,rest
0.096493475,0.068953097,0.98745966,-0.000929609,-0.018071257,-0.001896902,178.6695388,354.6353338,4.801137189,rest
0.094796352,0.070895426,0.985997438,-0.00276107,-0.010432839,-0.005862994,178.2784285,354.5041199,4.700857633,rest
0.074915789,0.080849931,0.989652932,-0.005814627,-0.032111816,-0.023573656,178.1283556,354.3056956,4.685864514,rest
0.090917222,0.081092723,0.977468073,-0.001537587,0.023166854,0.022233885,178.4213161,354.4033887,4.617417907,rest
0.091402106,0.070652634,0.986728549,-0.000620879,-0.010120748,-0.002500752,178.15416,354.2711776,4.607290017,rest
0.077340245,0.085705779,0.989652932,0.005181033,-4.26657E-05,-0.018382899,178.2638256,354.378155,4.659179818,rest
0.086068295,0.080121547,0.98063612,0.012510318,0.000566233,0.012155885,178.5817162,354.4880553,4.639031614,rest
0.089220099,0.076236866,0.987947047,0.002736762,0.015223878,0.019783657,179.0667689,354.6761612,4.545636888,rest
0.106676206,0.068953097,0.976249576,0.006095804,-0.010125991,0.032912556,179.155657,354.5723795,4.577617114,rest
0.10813088,0.068953097,0.988434374,-0.002149541,0.012782264,0.011531111,179.1176539,354.3429509,4.424351938,rest
0.094796352,0.07016705,0.989896595,0.005790576,0.000874793,-0.012288072,178.7928374,354.0383812,4.476149958,rest
0.094796352,0.067010745,0.975274801,-0.008562956,-0.015615659,0.010923004,178.7816495,353.8920538,4.37155671,rest
0.087522976,0.067739129,0.985753715,-0.009782709,-0.01194812,-0.000376548,178.5890245,353.8744063,4.306730104,rest
0.076128013,0.072109394,0.991358757,-0.008560002,-0.030576395,-0.001293111,178.5775225,354.0170484,4.351757273,rest
0.075643122,0.072837777,0.985753715,-0.007339701,-0.015303755,0.006341337,178.6217275,354.1788313,4.51144923,rest
0.068854645,0.083763435,0.975762188,-0.001536038,-0.019882746,-0.012292318,178.9199062,354.2547104,4.502970831,rest
0.084371179,0.081092723,0.983804166,0.004877202,0.00515986,0.017328892,179.2674262,354.4516085,4.525879285,rest
0.098433048,0.073566154,0.976980627,0.003044199,0.011570901,0.041143365,179.648824,354.5637005,4.466670937,rest
0.094311461,0.074294522,0.992089868,0.003654681,-0.043395281,-0.018104715,179.3472028,354.1547971,4.465456017,rest
0.071521543,0.086676955,0.992820978,0.003041044,-0.019567197,-0.009553991,179.4963878,354.0989765,4.608253928,rest
0.098917931,0.079393171,0.980392396,0.009449311,-0.000934159,0.042967789,180.0522869,353.8511781,4.813986056,rest
0.108858213,0.081821099,0.987947047,0.01066868,0.030212171,0.008448152,180.4995004,354.2924805,4.828703833,rest
0.116131596,0.071381018,0.969426036,-0.000631783,-0.004911058,0.014558294,180.1593843,354.1739003,4.824833677,rest
0.088007867,0.084977403,0.975031078,-0.029640099,0.000586018,-0.007737569,180.1019014,354.1234098,4.63580435,rest
0.108373329,0.082063891,0.972350419,0.007926397,0.007306976,0.012720463,180.2754702,354.0016182,4.639992536,rest
0.105948865,0.072837777,0.98136723,-0.008870982,-0.003384005,-0.009872464,179.7665901,354.0615923,4.663352637,rest
0.088492759,0.0881337,0.986728549,-0.003678367,-0.030255781,-0.010482818,179.7481623,353.9062815,4.676535756,rest
0.08970499,0.080607139,0.98063612,-0.02108407,0.047008436,0.026161499,180.094074,354.4061101,4.416470327,rest
0.098433048,0.077693626,0.969669759,0.000601854,0.029288884,0.0285978,180.3574734,354.49229,4.420110391,rest
0.107645988,0.069195889,0.964064717,0.01159789,-0.031798527,0.034089252,180.4602814,354.7685088,4.326554301,rest
0.103766859,0.068953097,0.993064702,-0.003670424,-0.018046275,0.004462369,180.2692274,354.2692305,4.114741171,rest
0.102312177,0.068224713,0.980879843,-0.010998346,-0.0195683,0.007516289,180.018013,354.0836765,4.009849529,rest
0.073946007,0.081578307,0.989409208,-0.001224678,-0.036068637,-0.008366691,180.0657287,354.8669438,4.037037097,rest
0.094311461,0.07308057,0.970888257,-0.010079302,0.036618125,0.04018373,180.4731632,355.0285892,3.951358777,rest
0.107888438,0.061912108,0.978442848,-0.007024694,-0.005838003,0.022464924,180.4639014,355.1158342,3.998224547,rest
0.083886288,0.080607139,0.984779,0.00641105,-0.09989015,-0.017236585,180.1824703,354.4302061,4.179919105,rest
0.078310028,0.082549475,0.991846144,-0.000920024,0.007315859,-0.019067045,180.0928719,354.397376,4.298308054,rest
0.102069736,0.072594978,0.984291553,0.008852642,-0.000930561,0.005977078,180.0243514,354.3815688,4.282242169,rest
0.095523693,0.072109394,0.983804166,-0.003672816,0.002738612,0.007802444,179.9617969,354.2156285,4.455646584,rest
0.10813088,0.072837777,0.994039416,0.00182531,-0.003056932,-0.000749326,179.7979407,353.5147674,4.401927573,rest
0.092371896,0.083763435,0.988921821,-0.004589234,-0.04519657,-0.018465154,179.9055162,353.0627378,4.530553696,rest
0.099645272,0.085220195,0.992577255,-0.018635744,0.004894141,-0.041975882,179.5357161,353.0622012,4.487992653,rest
0.092856787,0.083035059,0.982342005,0.017707024,0.006110558,-0.024563367,179.5002537,353.5781998,4.584245386,rest
0.107888438,0.08424902,0.974299967,0.088541731,-0.020462286,-0.029442942,179.0873142,353.9568979,5.946718288,rest
0.106433757,0.08959046,0.970888257,-3.45446E-05,0.101072848,0.028277975,179.374428,355.1337835,6.021537034,rest
0.093099229,0.090804428,0.968694925,-0.045839086,0.097082727,0.055448908,179.9669059,355.8874249,5.532465181,rest
0.069339536,0.07550849,0.977711737,-0.129198581,0.050345644,0.034061346,180.1726895,356.0485021,4.727258875,rest
0.034184873,0.069681473,0.980392396,-0.0448898,0.197510213,-0.005643856,180.2599383,358.7034215,4.238867479,rest
0.017698551,0.068710297,0.999157071,0.036037296,-0.025442909,-0.035572633,179.8975385,358.0084227,5.345116934,rest
0.031760417,0.064097241,0.970644593,0.00457168,-0.009257883,0.029783566,180.0166333,358.2445304,5.632913358,rest
0.041943144,0.068467505,0.990384042,0.012815695,0.051820349,0.030083133,180.218602,358.2966697,5.614006113,rest
0.02497193,0.074537314,0.972106695,-0.006423917,0.029825786,0.036791783,180.8167763,358.2423642,5.363580642,rest
0.019638117,0.059241388,1.00451839,0.035421204,-0.101483062,-0.034972701,180.1582778,357.4992658,4.976575294,rest
0.008243161,0.079635963,0.970888257,-0.025968749,-0.070627727,-0.021838408,180.0769029,357.4317054,4.969313522,rest
0.033942427,0.069681473,0.999400795,-0.007642996,-0.080080271,0.040154893,181.0943825,356.0942848,5.067225991,rest
0.025699267,0.055842295,0.982098341,0.008542188,-0.152142286,-0.028864693,180.2694869,355.4252089,4.984496179,rest
0.006788486,0.052685987,1.027669549,-0.023217516,-0.190003768,0.028553113,180.5059344,354.4959898,3.815400446,rest
0.032972645,0.05681346,0.976493299,0.0112928,0.032955386,0.031293679,180.8129651,354.7790982,3.955807364,rest
0.036366891,0.05948418,0.991846144,-0.005199328,0.002712226,0.041971624,181.3530145,355.3382661,3.767653155,rest
0.04461005,0.054142743,0.991358757,0.018619623,0.004854137,0.040129162,181.6278886,355.2006498,3.878292828,rest
0.027396388,0.049772479,0.998913348,-0.020776846,-0.132872865,-0.021256808,180.8150551,353.7420718,3.561325947,rest
0.051398534,0.052443195,0.979661286,-0.003365334,0.002129197,0.015697122,180.7716834,353.5424843,3.373764897,rest
0.028608618,0.063854448,0.997938573,0.010071706,-0.032378785,-0.039884821,180.5364517,353.6361168,3.444191404,rest
0.040246025,0.052443195,0.990627706,-0.014052723,0.069926798,0.022723574,180.5607535,354.2824559,3.165331002,rest
0.016486323,0.052443195,0.983804166,-0.055591561,0.232416958,0.039522368,180.9846214,357.2453853,2.874568569,rest
-0.048132952,0.064825617,0.969182372,-0.046117965,-0.029948972,-0.027059011,180.8890534,357.7455949,3.06577203,rest
0.037821561,0.051714819,0.978442848,-0.037864972,-0.072399609,0.068217456,181.445263,357.9143121,3.013368898,rest
0.056005009,0.033262581,0.969182372,-0.03480798,-0.059251942,0.027285712,181.3510747,357.1781846,3.06439468,rest
0.040730912,0.047830135,0.999157071,0.011309162,0.053753637,-0.053030826,180.8175413,357.0508415,3.115821095,rest
0.016728768,0.054385535,1.010610819,0.007337559,0.015269947,-0.051190201,180.6230858,357.2561884,3.251652427,rest
0.041215803,0.042731494,0.969426036,-0.007322799,0.055265814,0.031876817,180.8915396,357.825443,3.224469982,rest
0.040003575,0.037875641,0.985266328,-0.001825348,-0.034521826,0.020571778,180.8888075,357.4870298,3.234978441,rest
0.022789916,0.050015271,0.992820978,0.005197521,-0.018938856,-0.017909396,180.7018242,357.3139099,3.299571327,rest
0.043397821,0.047830135,0.982829392,0.009164684,-0.017410049,0.016294716,180.7555369,357.3866371,3.384633435,rest
0.046549615,0.041274738,0.97722435,-0.017405825,-0.006102087,0.035836115,180.8326224,356.8909455,3.420758733,rest
0.04048847,0.048315722,0.994039416,-0.022902152,-0.046720296,-0.013945167,180.5614639,357.0042024,3.430519713,rest
0.040246025,0.050986439,0.992820978,-0.008240744,-0.001516726,-0.019442167,180.3353709,357.0637525,3.289898712,rest
0.019153228,0.052443195,1.060325027,-0.012821157,-0.015565321,-0.020967569,180.2576844,357.1767454,3.213910082,rest
0.029578403,0.05681346,0.985997438,0.014968995,-0.007008282,-0.009971252,180.237508,356.862896,3.401508698,rest
0.044852495,0.055113915,0.997207463,0.018323731,-0.030220011,0.01506701,180.5755067,357.062935,3.521415017,rest
0.055277668,0.053414367,0.98404789,0.011296954,-0.022577371,0.038269009,180.9716031,356.6651369,3.524788063,rest
0.064733058,0.053899955,0.973081529,0.003353808,-0.015239991,0.032459941,181.025302,356.0554979,3.701230419,rest
0.073703557,0.049044099,0.981123507,0.009156898,0.022327239,0.016272424,180.6998025,355.8304713,3.551787161,rest
0.066672623,0.050258063,0.984779,0.002437152,0.013777811,-0.014874717,180.1289626,355.5618357,3.527012571,rest
0.037579119,0.065796785,0.979417682,-0.018023776,-0.021956222,-0.001132198,180.1808174,355.7390121,3.442834545,rest
0.065460399,0.05487112,0.985266328,-0.007943753,0.025378821,0.015969288,180.1780717,356.0432812,3.393992716,rest
0.056489896,0.050743647,0.993795693,-0.00672197,0.018044837,-0.004800898,180.1768832,356.1904611,3.417893042,rest
0.04679206,0.059241388,0.991846144,0.012517978,0.007356871,-0.021289099,179.9605402,356.0918499,3.480066119,rest
0.041943144,0.065311208,0.986241162,-0.001531407,0.002161507,0.003447303,180.2287107,356.427486,3.481662036,rest
0.059641697,0.051714819,0.979173958,-0.003974099,-0.009445608,0.028790208,180.5321897,356.5302729,3.384024054,rest
0.070066869,0.047587346,0.979173958,0.002745651,0.008574115,0.02176108,180.5953689,356.4873648,3.296580771,rest
0.066187732,0.044673834,0.979173958,-0.004279837,0.010710675,0.018089171,180.3775405,356.4293619,3.348437275,rest
0.062066156,0.043459874,0.982342005,-0.00672242,-0.028077833,0.01350769,180.1086633,356.5256151,3.285500497,rest
0.082916506,0.04418825,0.995989025,-0.04061377,0.021706983,0.000378202,179.6346992,356.1581876,2.600677769,rest
0.073218666,0.037875641,0.976736963,0.027177796,-0.016470818,-0.014581829,179.1444282,356.0542198,3.539906047,rest
0.056974791,0.05681346,0.987215936,0.027476512,-0.006084982,-0.027406095,179.0836395,355.9670414,3.806782028,rest
0.069581978,0.051229235,0.96016556,0.052200411,0.115137704,0.013823825,179.3093499,357.7876172,4.556864011,rest
0.043397821,0.123095833,0.972837806,-0.022628682,-0.163708523,0.025122721,179.7077139,356.9018136,5.104588834,rest
0.190320045,0.053657159,0.908501863,-0.157629907,-0.623995483,-0.04359962,178.1355956,351.7832201,4.819045518,rest
0.164620772,0.066039577,1.015484691,0.191785023,0.502134621,0.026649885,178.2934413,351.5310939,4.499644102,rest
0.090189874,0.066039577,0.966745377,-0.099897794,-0.217756495,-0.003891511,178.0952155,350.6826307,4.072350028,rest
0.102069736,0.053899955,0.994770527,0.000587899,0.1688914,-0.109862886,177.6682057,354.0900179,4.138919187,rest
0.10813088,0.055842295,0.966257989,0.032651965,0.136792779,-0.064955585,177.3877172,355.6053701,4.574649824,rest
0.071279101,0.083035059,0.993795693,0.025623914,-0.043089733,-0.019746367,177.2931874,354.9076884,4.716956388,rest
0.018183446,0.07016705,0.99842602,0.307232797,-0.015600795,0.211771548,178.141333,355.4511427,5.478963028,rest
0.089220099,0.085220195,1.000862956,0.083350673,-0.181145281,0.028817419,178.5775088,356.0857484,5.243625018,rest
0.118556052,0.130379617,0.958947122,-0.013167925,0.22568357,0.012013637,179.1262872,356.1685546,5.29959543,rest
0.048974074,0.080121547,0.986484826,-0.138049334,0.057371512,0.0083593,178.3289446,357.3531538,3.407601441,rest
0.173833713,0.043459874,0.942132056,-0.197303265,-0.264554471,0.31226477,179.3032574,353.7669201,3.300659248,rest
0.106918648,0.113141336,1.052282929,0.430666208,-0.111838162,-0.122976735,179.1241289,352.3002757,3.702549926,rest
0.149589136,0.095903061,0.935795903,-0.134681165,0.160282522,0.003170546,178.8997298,353.1067042,3.996662995,rest
0.088735208,0.0881337,0.978686571,-0.137124628,-0.2511352,0.107323073,179.9586277,348.0454162,1.945396678,rest
0.102312177,0.041760322,1.018652797,0.018032759,-0.094434977,0.007144564,179.2835318,347.9922243,1.513204505,rest
0.186198458,0.079150379,1.007686496,0.060783904,-0.019904606,-0.078977011,179.001404,347.7643103,2.323540709,rest
0.140133739,0.075022906,0.959678233,-0.086416163,0.119351536,0.069748111,179.6711451,348.3302333,1.882278899,rest
0.074915789,0.058027428,0.975762188,-0.009145129,0.045119125,0.037979227,179.7246118,349.9024148,2.440250713,rest
0.115889147,0.051957611,0.985266328,0.012847584,0.06314145,-0.002337298,179.6332922,350.0356658,2.310039773,rest
0.030548185,0.08959046,0.949442923,0.075454935,0.07840649,-0.017912857,180.3979491,351.9910064,5.181001148,rest
0.009697837,0.089833252,1.011829376,-0.023808261,-0.127140701,0.029429762,179.9519068,353.0092139,5.391669369,rest
0.060853925,0.07162381,0.981610894,-0.021359697,0.076267861,0.030033756,180.3777318,353.3153976,4.81550748,rest
0.064490609,0.07550849,0.983073056,0.032697331,0.064957276,-0.020658895,179.8387306,353.8180214,4.904922768,rest
0.052610762,0.079393171,0.98745966,0.023837235,0.004789028,-0.008132414,179.4476066,353.7703283,4.859214288,rest
0.048004292,0.095417485,0.986728549,0.033605687,-0.005899634,-0.059134319,179.3724472,353.8991564,5.276618674,rest
0.048974074,0.092746764,0.99160248,0.021389868,0.017623475,0.001336847,179.703083,353.5170986,4.981841797,rest
-0.009379755,0.082549475,0.93214041,-0.062295638,-0.239536747,0.005613561,178.8345972,352.8304708,5.134178494,rest
0.055520114,0.081335515,0.988434374,0.037572559,0.064049304,0.039205715,179.1582252,354.0905745,5.425571866,rest
0.056732342,0.086676955,0.993064702,-0.006709959,0.015180468,-0.006608129,179.1669405,354.1618463,5.004731895,rest
0.056974791,0.089833252,0.978442848,0.033600826,-0.04712702,-0.04385867,178.6556189,354.540182,5.252461149,rest
0.032487754,0.095660269,0.99160248,0.021990433,0.009682803,0.0175253,178.9811457,354.6514944,5.300767235,rest
0.050671194,0.084006228,0.984779,-0.013744384,0.006930213,-0.006601955,178.9600814,355.018495,5.380343634,rest
0.056247454,0.08959046,0.983073056,0.012824662,0.024030022,-0.001714884,178.9875797,355.2420928,5.510918922,rest
0.024244592,0.10100171,0.988190711,0.010075182,0.018834483,-0.070741586,179.4527703,355.562955,5.513897311,rest
0.015516539,0.085462987,0.980879843,-0.006112672,-0.017515281,0.037372682,179.7677239,356.3082819,5.539981804,rest
0.024487037,0.091775589,0.995257914,-0.010999389,0.004482334,-0.00202302,179.7552657,356.0899097,5.652121557,rest
0.029578403,0.100273333,0.983804166,0.005493023,-0.015976135,-0.003853105,179.6002614,355.9987988,5.65782135,rest
0.010910066,0.09104722,0.982098341,-0.012220632,-0.029413374,0.022108253,179.4506119,356.2742492,5.688259661,rest
0.024244592,0.100030541,0.981610894,0.006104477,0.001435729,0.000422893,179.3860803,356.3857695,5.692575914,rest
0.023517253,0.098330997,0.983560503,0.003658913,-0.01535999,0.007140867,179.4374843,356.4823523,5.877653977,rest
0.014061864,0.102944054,0.99842602,0.009766489,-0.011080066,0.00835937,179.6851743,356.282442,5.914363255,rest
0.015031647,0.10100171,0.988678098,-0.011916917,-0.011383809,0.010495778,179.6963485,356.3895671,5.854862916,rest
0.01187985,0.10367243,0.986728549,-0.003364004,-0.014435371,-0.005993275,179.3917903,356.4438748,5.827131921,rest
0.017940998,0.104643598,0.983073056,-4.37349E-06,-0.005574955,-0.005988633,179.0701021,356.4317318,5.859430605,rest
0.020607902,0.10755711,0.983804166,0.008852273,0.012748969,0.005003473,179.2355156,356.5990048,5.831957023,rest
0.018668335,0.090561636,0.990384042,-0.011304867,0.001141546,0.022106258,179.1734019,356.791861,5.836115327,rest
0.020365456,0.104158014,0.97381264,0.010073498,0.008774813,-0.009046383,179.1520097,357.0134129,5.873102936,rest
0.006788486,0.104400806,0.975274801,0.003657948,-0.00527581,0.017522786,179.2500502,357.2273026,5.942743545,rest
0.012364741,0.095174693,0.989652932,-0.001839861,0.005108202,0.078605436,179.0587093,357.3666329,5.946282437,rest
0.010182728,0.103186846,0.990384042,-0.01039277,-0.025432857,-0.014242698,178.9929073,357.5094285,6.072646059,rest
0.00945539,0.110227831,0.984535277,0.002434786,-0.001302065,-0.008740885,178.8128498,357.5318113,6.225384884,rest
0.011152512,0.11508368,0.984779,0.005792849,0.00816557,-0.024011083,178.9294821,357.6147037,6.293036627,rest
0.020607902,0.111198999,0.979905009,0.017090652,0.019768694,-0.005992436,179.1567908,357.7549975,6.360680686,rest
0.018183446,0.105371974,0.985022664,-0.004288964,-0.007410502,0.004084579,179.2975337,357.5431203,6.399002743,rest
0.016486323,0.099787742,0.988678098,0.008843053,0.030148901,0.024239151,179.3784988,357.924282,6.370974208,rest
0.017456107,0.10634315,0.975031078,0.002123129,-0.005280593,-0.00691267,179.3125191,358.0528618,6.401599068,rest
-0.013329125,0.121153489,0.965770602,0.009144209,-0.064526007,-0.031035818,179.1533757,358.0969486,6.588345405,rest
-0.015056974,0.106585942,0.970157146,-0.005821269,0.004804343,-0.000791089,178.7692459,358.3544567,6.609076737,rest
0.03976113,0.108042702,0.990627706,0.031434257,0.035643205,-0.078361638,178.7703797,358.3917655,6.826426163,rest
0.022547469,0.10245847,0.961140394,0.034171067,0.058521315,0.022433121,178.5486171,0.249325517,7.482291236,rest
0.004848918,0.118725568,0.968694925,0.006684117,-0.000120971,-0.004748133,178.4623928,0.270374959,7.28232891,rest
-0.006170891,0.1175116,0.977468073,-0.022940116,-0.026387017,0.013877087,178.851577,0.343608701,7.220599368,rest
0.012607188,0.112412959,0.989652932,-0.015603591,0.012404188,0.02059149,179.1041301,359.9779519,6.818188101,rest
0.005818702,0.109742239,0.983316779,-0.028728409,0.012096063,0.01814325,179.4017487,0.079973598,6.231978578,rest
-0.00394937,0.108042702,0.977711737,-0.00460251,-0.017836941,-0.006594103,179.2850891,0.254446211,6.418809011,rest
0.00775827,0.111927383,0.979417682,0.02929531,0.013313315,-0.067371942,179.3735127,0.286085435,6.478950534,rest
0.000727338,0.105129182,0.977955461,0.010663252,0.004452692,0.045018118,179.5388306,0.420314287,6.46655929,rest
-0.00789874,0.118239984,0.98063612,-0.013159864,-0.026391273,-0.025533382,179.5117694,0.334813258,6.554296912,rest
0.007030932,0.112170175,0.977955461,0.017687019,-0.005315056,0.001955036,179.464846,0.233931631,6.500066064,rest
0.00945539,0.117026016,0.978686571,0.008526098,0.003238833,0.012335943,179.6350134,359.968874,6.290417249,rest
0.008000716,0.109742239,0.974299967,-0.007965509,-0.014472971,0.015080776,179.7897035,359.7382363,6.219894692,rest
0.009697837,0.10245847,0.984291553,0.002421565,0.016375471,0.026681798,179.9131933,359.5180565,5.996423709,rest
0.015274093,0.10488639,0.993795693,-0.01009883,0.011185661,0.01262956,179.9207885,359.2008194,5.959454883,rest
-0.00172785,0.116297647,0.990140319,0.000896111,0.004161766,0.007433766,180.1440573,359.0041841,5.984931062,rest
0.004121581,0.103186846,0.979905009,-0.012845349,-0.022101386,0.01750488,180.0881318,358.9317795,5.890035829,rest
0.010910066,0.106585942,0.983560503,0.005172458,0.003247241,0.01261737,179.957248,359.0742527,6.036011059,rest
-0.007651905,0.117026016,0.984779,-0.011625204,-0.014464281,-0.0160896,179.766071,359.0311684,6.060991195,rest
-0.002468356,0.110713415,0.974787354,0.003341053,-0.018126467,0.00162534,179.6958294,359.0598724,6.056896497,rest
-0.008639248,0.115326472,0.973325253,-0.00826418,-0.042554997,0.010173938,179.8417768,359.0394835,6.030792367,rest
0.01187985,0.109013863,0.976249576,0.026245836,0.024942843,0.009862425,180.1914452,358.9857919,6.121828117,rest
0.013334526,0.111927383,0.977711737,-0.00032549,-0.022391411,0.001315166,180.1512427,358.5501821,6.064996674,rest
0.007515823,0.114355303,0.977468073,0.00761538,0.006928885,0.010475658,180.1918687,358.5437453,6.036740181,rest
-0.000493671,0.112170175,0.972106695,-0.009181794,-0.007730188,0.008029274,180.3006463,358.5474124,6.014768743,rest
-0.002468356,0.112898543,0.976980627,0.004563779,-0.018414736,0.012302486,180.3574598,358.2663892,5.875537472,rest
-0.00172785,0.10755711,0.987947047,-0.002765674,-0.019019343,0.026958406,180.3588258,358.077121,5.88733705,rest
0.00533381,0.105129182,0.987947047,-0.005820639,-8.4091E-05,0.006799242,180.2298582,358.2497286,5.947228845,rest
-0.000493671,0.1175116,0.97722435,0.019525908,-0.008940024,0.001298868,180.2975727,358.2835166,6.064971061,rest
-0.001974685,0.111684591,0.977711737,-0.003992394,-0.019321863,0.017177034,180.3463402,358.3528849,6.136504059,rest
0.006303594,0.10755711,0.987947047,0.00455844,-0.001911489,0.019922495,180.3394691,358.3883723,6.176474326,rest
-0.001974685,0.119453952,0.975762188,0.0018094,-0.021763077,-0.021000773,180.1649167,358.523813,6.225521487,rest
-0.002962028,0.11896836,0.978199124,0.004557066,-0.010460304,-0.002065635,180.26655,358.5051278,6.30564601,rest
0.000242446,0.115569271,0.98063612,-0.002467874,-0.00099236,0.002514321,180.3160688,358.6292377,6.373013873,rest
0.013819417,0.109742239,0.985753715,-2.3663E-05,0.011531811,0.012284914,180.3849581,358.4722676,6.331134568,rest
0.013819417,0.108042702,0.983804166,0.006694477,-0.002819011,0.011669155,180.5803425,358.0957787,6.407489253,rest
0.002182013,0.119453952,0.98063612,0.002416629,0.007563638,-0.002076021,180.6432212,358.2431035,6.518329136,rest
-0.000987343,0.119453952,0.983073056,-0.000330236,-0.004041707,-0.069573186,180.7532829,358.2673757,6.366082939,rest
0.001939567,0.114112511,0.989896595,-0.000634201,0.011836909,0.019914018,180.837144,358.5111093,6.291735903,rest
0.000242446,0.106828734,0.990627706,-0.00582524,-0.017481061,0.03029363,180.8406,358.4660711,6.26798392,rest
0.00533381,0.105857559,0.993308365,-0.00674089,-0.014116334,0.014104506,180.6460353,358.2636962,6.257359987,rest
0.008728053,0.113384128,0.995257914,0.004255302,0.011846943,-0.016128924,180.3416001,358.119206,6.195076773,rest
-0.001481014,0.1175116,0.980879843,-0.001854502,-0.013807379,-0.024064232,180.0313182,358.2303063,6.351523537,rest
-0.005183549,0.119939536,0.974787354,0.000892807,-0.017166348,-0.014593604,179.9351455,358.4149741,6.447062088,rest
-0.000987343,0.121881872,0.978930235,0.010969937,0.011234332,-0.012760384,180.0126172,358.7375872,6.558982849,rest
-0.002715192,0.115569271,0.977711737,-0.00216445,-0.020834666,-0.004817946,179.8778129,358.9625758,6.66795254,rest
-0.001234178,0.118482776,0.978442848,0.005776189,-0.005561965,-0.011230791,179.8557514,358.9937622,6.721715521,rest
0.002182013,0.1177544,0.978199124,0.003637735,0.004210075,-0.070174612,179.8975249,359.1062801,6.715257577,rest
0.008728053,0.117268808,0.981854618,-0.000942983,0.014287082,0.004654852,179.8910225,359.1749147,6.675016664,rest
0.008728053,0.107314318,0.989165485,-0.004300989,0.002069769,0.021450188,179.9205153,359.1873589,6.57258517,rest
0.008728053,0.105129182,0.987947047,-0.003689785,-0.000677796,0.010148625,179.8310125,359.1185985,6.581732928,rest
0.001697121,0.10634315,0.985510051,0.002418052,-0.011059817,0.006485572,179.5740198,359.0710228,6.606656715,rest
-0.004689877,0.122124664,0.969913483,0.016158443,-0.000678455,0.002513492,179.6492202,359.3350187,6.762367953,rest
-0.000987343,0.065311208,0.984779,-0.00338896,-0.00251084,0.001291653,179.7527795,359.2540061,6.695001797,rest
-0.002221521,0.118725568,0.980879843,-0.003387954,-0.01319932,0.020528758,179.9586004,359.2727672,6.705294892,rest
0.005818702,0.118482776,0.981123507,-0.002775822,0.005433857,0.009835417,180.1194004,359.0572158,6.625201106,rest
-0.002468356,0.117268808,0.982098341,0.001804851,0.001155021,0.017771132,180.3813381,359.296314,6.685638462,rest
-0.000493671,0.109985039,0.983560503,-0.011936687,-0.016250262,0.017154915,180.5251409,359.1023631,6.544770079,rest
0.018425889,0.104158014,0.994039416,-0.003383055,0.006354464,0.015322974,180.1826479,358.8374054,6.42480549,rest
-0.001481014,0.112655751,0.984291553,-0.003382742,-0.018379865,-0.020101037,179.7723275,358.6570036,6.424835799,rest
-0.010860768,0.122367457,0.977711737,0.000891857,-0.021736456,-0.027730659,179.4673049,358.6885584,6.551929398,rest
-0.004443042,0.122124664,0.972106695,-0.00094099,-0.018068504,-0.015512163,179.4314601,358.7070631,6.63349509,rest
-0.003208863,0.115569271,0.982342005,-0.004607305,-0.008597078,0.019606259,179.6717734,358.6506279,6.732663033,rest
-0.003702535,0.114355303,0.980879843,-0.003079697,-0.001876622,0.029065263,180.1855029,358.645966,6.720759721,rest
0.007273377,0.108528279,0.986484826,-0.000636872,-0.000350475,0.032723874,180.3661341,358.6970544,6.740796935,rest
-0.002962028,0.116297647,0.981610894,-0.003995854,-0.012262361,0.024471048,180.6555292,358.8377442,6.707713633,rest
-0.007651905,0.121153489,0.982342005,-0.004911888,-0.019588755,-0.020423606,180.4929161,358.798729,6.733370812,rest
-0.000246836,0.115812063,0.97722435,0.004250739,-0.006148862,0.005841588,180.455514,358.8420026,6.707935187,rest
-0.001974685,0.11896836,0.985753715,-0.008271016,0.002403723,0.010417037,180.6434261,358.8352547,6.693190516,rest
-0.023449387,0.122610249,0.982585669,-0.011018954,-0.039127458,-0.025619555,180.4703082,358.7806176,6.751930997,rest
0.001939567,0.112655751,0.981123507,0.002114292,0.010656171,0.004312063,180.4096697,358.8805068,6.753336735,rest
-0.006664563,0.11896836,0.974299967,0.004862674,-0.008890996,0.014997678,180.5732937,359.0348065,6.752112851,rest
-0.005430384,0.116783224,0.978442848,-0.001245353,0.000882395,0.023542494,180.8764312,359.0946028,6.702287475,rest
-0.000246836,0.109499447,0.985753715,-0.005213559,-0.007056793,0.025674613,181.005754,359.0252956,6.542356461,rest
-0.014563303,0.117268808,0.978442848,-0.004602507,-0.023852859,-0.0036422,180.6514038,359.1668743,6.573681416,rest
-0.001234178,0.106585942,0.984779,-0.019870616,-0.024150712,0.009490576,180.4443534,358.736214,6.455247643,rest
-0.000493671,0.112898543,0.984779,-0.013149451,-0.019258088,-0.005166629,180.0581745,358.5598195,6.456403653,rest
-0.014069632,0.122367457,0.979173958,0.001203984,-0.022005288,-0.023488561,179.7186559,358.6376973,6.609210352,rest
0.023517253,0.097359821,0.99769491,0.02197035,-0.004590798,0.011942927,179.1340463,357.8805562,6.780690789,rest
0.004364027,0.122367457,0.972594142,0.022880781,0.024417423,-0.013713088,179.2763601,358.3639529,7.017547235,rest
0.024244592,0.106100358,0.993795693,-0.012243975,-0.023535497,-0.007299003,179.1956683,357.7188916,6.732939656,rest
0.007273377,0.117997192,0.974543691,0.00730595,-0.055589084,0.009799903,179.4259003,356.9174968,6.435474672,rest
0.030548185,0.111441791,0.978686571,-0.002162684,-0.019849824,0.018651258,179.7144621,356.808344,6.461595877,rest
0.020123012,0.108771071,0.977955461,-0.018042659,-0.055272311,0.025975425,179.9296541,356.7378972,6.397469365,rest
0.057944573,0.100758918,0.975762188,-0.037587188,-0.142003238,0.027194871,179.8911591,353.771828,6.117945154,rest
0.078067586,0.109256655,0.982098341,-0.01193041,-0.062878005,0.023826588,180.3049903,352.5726815,6.146477416,rest
0.086795643,0.095903061,0.978930235,-0.007651854,0.011953393,0.017403957,180.2925866,352.5451952,6.079252133,rest
0.07467334,0.108528279,0.976493299,-0.016202603,-0.006368417,-0.013135225,180.0143657,352.4712327,6.116911661,rest
0.124132313,0.105614766,0.98063612,-0.008566938,-0.01858378,-0.01527012,179.6538237,352.5660716,6.236403259,rest
0.060126588,0.113384128,0.976249576,0.000900142,-0.021941988,-0.013741316,179.5825712,352.8430396,6.327848393,rest
0.076128013,0.107071526,0.980879843,-0.001847487,0.002496613,0.005498912,179.6204651,352.6924643,6.266059941,rest
0.085825853,0.112412959,0.974056304,0.004873186,0.003112394,-0.003967703,179.5593622,352.5057329,6.215383779,rest
0.086068295,0.108042702,0.976493299,0.010673944,0.01990979,-0.016489312,179.6005072,352.6280223,6.326347032,rest
0.074188448,0.104400806,0.982098341,-0.011313889,-0.017346432,0.016188614,179.6066408,352.5273829,6.197053686,rest
0.056005009,0.116783224,0.978199124,-0.002151649,0.005863169,-0.014044825,179.4700916,352.9040012,6.286009643,rest
0.086795643,0.107314318,0.982098341,0.011284869,0.026325652,-0.018317265,179.3318486,353.0120975,6.404424632,rest
0.058187019,0.115569271,0.98404789,0.00487202,-0.010932472,-0.014954787,179.1949579,353.0387045,6.307129015,rest
0.057459682,0.109013863,0.985022664,0.029606141,-0.007875726,0.053754464,179.7307863,352.9350875,6.433641193,rest
0.093099229,0.09226118,0.979173958,-0.041861575,-0.132481098,0.007633493,179.168088,350.9789235,5.895307027,rest
0.145467564,0.104400806,0.959190845,-0.062320322,-0.125751019,0.010381514,178.624241,348.3258501,5.557191319,rest
0.131405681,0.113384128,0.947005928,0.007924102,0.00375668,0.01893368,178.4878148,348.0104481,5.956423133,rest
0.15395315,0.095660269,0.97722435,0.006400563,-0.02647209,0.038166542,178.8115384,347.7874963,5.591233836,rest
0.139891297,0.094931901,0.976005912,0.003041986,-0.110139482,0.018006863,178.7200685,347.1687153,5.515008498,rest
0.154195607,0.093475141,0.971375644,-0.032378778,-0.052705452,-0.035127319,178.0639332,346.8154032,5.216246205,rest
0.160741642,0.095903061,0.927997649,-0.005201358,0.054180689,-0.020457059,177.630066,347.759011,5.959618808,rest
0.166560337,0.092746764,0.877065003,0.001212627,0.085022241,-0.122766666,176.4243873,349.1904069,6.80422506,rest
0.142073318,0.10245847,0.983560503,0.059848458,0.109745398,0.027197048,176.7956491,350.061863,6.754701919,rest
0.130678341,0.081092723,0.952123582,-0.009179264,0.071546383,0.023836797,176.8794282,351.0758601,6.833032236,rest
0.098433048,0.100273333,0.975518465,0.007311922,-0.020996798,0.011311618,177.1012317,351.2457363,6.823814469,rest
0.080492049,0.116297647,0.992820978,0.054333892,0.039775342,-0.01434439,177.3587845,351.6699628,7.270581838,rest
0.051398534,0.133050323,0.945056379,-0.044618957,-0.115366399,-0.036025744,177.393195,351.2184309,7.153330115,rest
0.105948865,0.096145861,0.976493299,0.031734891,0.081925325,0.075448126,177.8825371,352.4784608,7.158551795,rest
0.125344545,0.093232349,1.002081394,0.002413362,0.057490714,0.044293996,178.4639364,351.9335739,7.058282484,rest
0.099887721,0.104400806,0.987947047,0.0179874,-0.006343409,-0.031751055,178.280218,352.0771641,7.077890676,rest
0.099160381,0.112170175,0.989165485,-0.039423276,-0.021303264,0.009173987,178.4142263,351.9768389,6.700050161,rest
0.036609333,0.14300482,0.968207598,0.012191482,-0.022218367,0.000924302,179.2715653,352.6879009,7.18175779,rest
0.103039511,0.112412959,0.97722435,0.014021311,0.052602705,0.034210425,179.751632,353.3856807,7.310179006,rest
0.093099229,0.115812063,0.978686571,-0.012854569,-0.024665119,-0.011602261,179.6718144,353.2672157,7.326588536,rest
0.114676915,0.109013863,0.982585669,0.023489896,-0.015494898,0.007943397,179.6700796,352.9094662,7.225972165,rest
0.107403539,0.127466097,0.994770527,0.019516222,0.098730564,-0.035113286,178.9251108,352.8066215,7.396101932,rest
0.115889147,0.110470623,0.985266328,-0.001252465,0.00526955,0.082776435,178.9387439,352.7479698,7.311557851,rest
0.094796352,0.12042512,0.972106695,0.006682422,-0.014579587,-0.020150326,178.8332311,352.6715434,7.718558578,rest
0.116131596,0.112655751,0.984535277,-0.002480417,0.016572492,0.00794801,178.8830369,352.7128806,7.625751675,rest
0.102069736,0.122610249,0.970157146,-0.007976908,-0.03168039,-0.002741568,178.8915473,352.6541204,7.567976813,rest
0.127284095,0.110470623,0.985753715,0.003934793,-0.002964662,0.010078182,178.976829,352.2268486,7.518768715,rest
0.130193457,0.106585942,0.992089868,0.051570974,0.061161436,0.014658594,178.9647942,352.90101,7.979931988,rest
0.090917222,0.070652634,0.976980627,-0.008903936,-0.05123347,0.000914049,178.7492471,352.9840724,7.780128465,rest
0.112252459,0.130379617,0.978199124,-0.004319459,-0.03198171,0.003663636,178.6823796,352.6484087,7.620516335,rest
0.127526551,0.12163908,0.986484826,-0.019891404,-0.043574084,-0.002138428,178.6001851,352.1060857,7.396617612,rest
0.128738791,0.113384128,0.969426036,-0.004616968,-0.018218426,0.008856402,178.5797901,351.9560094,7.218252344,rest
0.11370714,0.123338632,0.964308441,0.003322441,-0.019438362,0.011906493,178.8820396,352.0779163,7.321500045,rest
0.139648855,0.116297647,0.975274801,0.006985944,0.018430918,0.002744876,178.8040525,352.2524097,7.376424157,rest
0.107645988,0.136206642,0.968207598,0.041794263,-0.014861315,0.019539438,179.0345168,352.5042268,7.879026189,rest
0.105463974,0.147375092,0.976005912,-0.000361405,-0.075015917,0.003650758,179.3593469,352.1260521,8.201505886,rest
0.138436615,0.126494929,0.976980627,0.006660253,0.02058167,0.012508154,179.2723303,352.1202268,8.297625431,rest
