acc_x,acc_y,acc_z,gy_x,gy_y,gy_z,pitch,roll,yaw,direction
0.049216524,-0.682186842,0.684788108,-0.013149582,-0.007027555,-0.002254559,125.627888,357.08066,315.0993063,right
0.049216524,-0.682186842,0.684788108,-0.013149582,-0.007027555,-0.002254559,125.627888,357.08066,315.0993063,right
0.049216524,-0.682186842,0.684788108,-0.013149582,-0.007027555,-0.002254559,125.627888,357.08066,315.0993063,right
0.049216524,-0.682186842,0.684788108,-0.013149582,-0.007027555,-0.002254559,125.627888,357.08066,315.0993063,right
0.049216524,-0.682186842,0.684788108,-0.013149582,-0.007027555,-0.002254559,125.627888,357.08066,315.0993063,right
0.049216524,-0.682186842,0.684788108,-0.013149582,-0.007027555,-0.002254559,125.627888,357.08066,315.0993063,right
0.049216524,-0.682186842,0.684788108,-0.013149582,-0.007027555,-0.002254559,125.627888,357.08066,315.0993063,right
0.049216524,-0.682186842,0.684788108,-0.013149582,-0.007027555,-0.002254559,125.627888,357.08066,315.0993063,right
0.049216524,-0.682186842,0.684788108,-0.013149582,-0.007027555,-0.002254559,125.627888,357.08066,315.0993063,right
0.049216524,-0.682186842,0.684788108,-0.013149582,-0.007027555,-0.002254559,125.627888,357.08066,315.0993063,right
0.104979083,-0.135086507,0.975762188,0.211959302,-0.002368115,0.849977374,178.83207,354.0048339,352.1592732,right
0.110797785,-0.04173208,0.964308441,0.164006382,-0.138285637,0.698177397,187.3362602,352.9380544,354.6262385,right
0.076370463,0.065796785,0.965770602,0.589779496,-0.083307765,0.61968118,194.5777907,353.0716375,2.8900763,right
0.136739492,0.145432755,0.986484826,0.504869223,0.121637531,0.700010002,203.4855595,354.203866,8.999709967,right
0.126556769,0.213414669,0.970888257,0.253498137,0.176920831,0.635258257,209.2958102,354.2579791,12.00322248,right
0.173106387,0.218756109,0.937989175,0.203712612,-0.061927475,0.621513784,215.1866571,350.0871023,13.00850082,right
0.144012868,0.199332699,0.969426036,-0.142632559,-0.0556718,0.092517614,215.363436,349.1296165,11.24245125,right
0.149346679,0.187678665,0.959190845,-0.021521417,0.007359151,-0.038237851,214.1889577,349.2506679,10.77699178,right
0.132133037,0.152716532,0.979173958,-0.188504577,0.148656189,-0.128601745,211.9739546,350.4220983,9.390901368,right
0.133830145,0.13426429,0.999644458,-0.187592894,0.198464006,-0.078131273,209.5732251,351.990355,7.833363813,right
0.106191315,0.086676955,0.968694925,-0.302130133,0.000849087,-0.190835923,150.6917862,337.6058024,329.6565499,right
0.118556052,-0.033047948,0.919468224,0.040484101,0.083717421,0.086544678,150.8962411,340.3618999,333.4405021,right
0.160499185,0.184522361,1.032056093,0.082633808,0.012857055,1.029415131,165.7683496,346.4425552,337.8984897,right
0.17092438,0.079150379,0.959921837,0.390204459,-0.124282196,0.813474298,176.1204166,349.2213024,342.0807306,right
0.18910782,0.184522361,0.957972288,0.292160571,0.001861479,0.399002254,182.0295037,350.5775338,347.83788,right
0.219171107,0.177481368,0.960652947,0.189229786,-0.047618601,0.271942288,185.8529617,350.3794472,349.6781737,right
0.223050252,0.232838079,0.938232839,0.151967019,0.01102446,0.426185757,191.6665592,351.7867018,352.4577687,right
0.212140173,0.215114221,0.966257989,0.176707059,0.073638149,0.259419531,194.724872,352.7708202,352.331949,right
0.208503485,0.217542142,0.947980762,-0.093177766,0.032499284,0.038917515,195.6356914,352.9101548,353.0779939,right
0.186198458,0.158300757,0.96357733,-0.038529091,0.092709914,0.012988243,195.4320971,354.071459,353.147322,right
0.108373329,-0.068749383,0.981123507,0.090058044,-0.197145641,0.616523147,291.1449381,347.6189178,341.5199465,right
0.215534419,-0.024846269,0.983316779,0.23025161,-0.228299767,0.853844285,296.1901803,346.3962217,342.0715047,right
0.158802062,0.065554,0.928972363,0.130375147,-0.041985873,0.611330748,297.2577389,347.9763168,345.0059248,right
0.199290544,0.019423407,0.977711737,0.117546976,-0.148276433,0.707847476,299.345837,348.2226288,346.2378954,right
0.195411399,0.000485585,0.996476471,0.579666555,0.231681749,0.5890342,299.703896,350.9834579,353.2205775,right
0.126314327,0.191806123,0.974787354,0.557370007,0.000163831,0.618966579,301.5292367,351.7614694,0.434353314,right
0.202927232,0.259302467,0.946762264,0.050351802,-0.035877217,0.613163352,302.8023293,350.6233575,3.510565689,right
0.209715724,0.15101698,0.932627857,-0.185442179,-0.265867978,0.503207624,302.5918639,346.8657084,1.003701635,right
0.297238708,0.103429638,0.951392472,0.015521998,0.019483512,0.055727772,297.7113112,345.7025067,1.450639652,right
0.302814931,0.073808946,0.954560518,-0.031385317,-0.013233874,-0.032059301,291.5724875,345.41945,1.147397182,right
0.095038801,-0.121819079,1.01621592,-0.413481534,-0.086537704,0.44746992,350.8487828,3.261364102,286.4513619,right
0.123647422,-0.189603552,0.967720211,-0.374386162,-0.047442324,0.565672338,344.7435243,3.042494959,281.0209722,right
0.091402106,-0.150524959,0.985022664,0.028479477,-0.05385641,0.364086807,339.2218508,3.001109135,282.0875062,right
0.123889863,-0.160897672,0.951148808,0.253888756,-0.257579952,0.423646182,333.8982972,2.96440007,285.1143797,right
0.120010726,-0.127608508,0.965283275,0.123469025,-0.024534881,0.392492056,327.9293932,2.43491911,288.4328339,right
0.132375464,-0.088047452,0.965283275,0.167756751,0.010284439,0.428227663,322.219717,2.581992079,291.9966764,right
0.164620772,-0.096007906,0.99842602,0.414851755,-0.042860836,0.363475949,318.5594084,2.359411155,294.4752222,right
0.11370714,0.01505314,0.953585804,-0.104078285,-0.154954612,0.282536298,314.4254569,0.70508459,295.2919011,right
0.18838048,0.02840673,0.976980627,0.180584922,-0.055383578,-0.018314835,309.9728395,356.0635601,297.993562,right
0.179167539,0.012139629,0.981610894,-0.049711272,0.067705773,-0.204628736,301.7121355,350.6321394,298.1645489,right
0.083401397,0.024522049,0.984779,-0.070491001,-0.034601063,0.124067172,300.4785077,12.62393385,280.0946892,right
0.076128013,-0.115305983,0.960652947,-0.238784373,-0.160439312,0.704389155,297.5018225,14.22180708,280.5719897,right
0.168015018,-0.076468609,0.99160248,0.029385474,-0.160439312,0.945986331,297.1699777,19.72278936,283.2015442,right
0.158317178,-0.057652991,0.936527014,0.783498645,0.050003771,0.540982664,292.5864564,23.40487433,291.4751641,right
0.09382657,0.103915222,0.945056379,-0.195412934,-0.19617492,0.697975039,292.1199135,23.20695765,295.6251461,right
0.215291977,0.067496337,0.963821054,-0.066520371,-0.162577331,0.591073632,291.2627862,22.29767676,297.9171595,right
0.207048804,0.019180615,0.985510051,0.216310248,0.01854421,0.454545289,289.4579838,21.38091853,302.4365727,right
0.204624355,-0.012061295,0.971131921,0.548926353,0.062526509,0.351614475,285.6857592,20.35881828,307.6232237,right
0.167287678,0.15708679,0.940913498,0.181185484,-0.075529039,-0.169148147,280.1286831,15.69696658,312.4615145,right
0.180864662,0.083520643,0.98136723,-0.061385207,0.002069965,-0.04411697,274.9244478,11.54441391,312.3044441,right
0.08509852,-0.052346017,0.971619308,0.087971352,-0.090170696,0.204810619,307.4218321,12.05867251,337.0857706,right
0.067884855,-0.087564997,0.958459735,-0.018013773,-0.011674505,0.695029974,306.371011,12.27714807,337.9799021,right
0.168499917,-0.031359363,1.044728398,0.847887695,-0.284120381,0.461068571,308.0390149,8.615767959,345.9973464,right
0.157589853,0.096874237,0.933846354,0.193345591,-0.016866859,0.376463741,302.3268594,8.482821742,350.5742519,right
0.151528701,0.074537314,0.974787354,0.347589076,-0.131709531,0.272922069,298.8324253,6.132788863,354.122778,right
0.199048102,0.161214277,0.975274801,0.346672773,-0.060849156,0.245127723,295.6641806,4.026998853,358.0138512,right
0.222080454,0.217056558,0.93969506,0.408064753,-0.046799254,0.347447634,293.567053,2.05270023,2.590865135,right
0.275661021,0.378756434,0.908745527,0.528710604,-0.154311538,0.32698366,291.2801759,358.1269459,10.64178734,right
0.267902732,0.36953029,0.888762414,-0.143145859,-0.005158603,0.009066449,286.3281794,356.5873043,9.173177989,right
0.265235841,0.33578214,0.918249726,-0.155412465,0.147235632,-0.078879051,280.2378637,357.1627787,7.622550878,right
0.013092079,-0.095525458,0.980148733,-0.079970613,-0.045492344,0.617507339,18.82980872,348.5624768,339.4284657,right
0.016728768,-0.068266928,0.974299967,-0.041791532,0.000627983,0.385989398,31.97803386,350.8079647,338.5761828,right
-0.000987343,-0.149318829,1.023770452,0.106954157,-0.046714075,0.481589824,46.03264389,353.2627791,337.532897,right
0.022305025,-0.069955505,0.956510127,0.035177492,-0.214091152,0.396374106,59.63354153,353.5057298,337.7516184,right
0.04461005,-0.082258031,0.979173958,0.153685346,-0.171636015,0.366747141,71.25585289,354.6648872,339.231355,right
0.089947432,0.003884681,0.967963934,0.529367507,-0.183853328,0.536262274,84.07953306,356.4395852,345.7800729,right
0.090674773,0.10488639,0.965526879,0.489050359,-0.171330571,0.380491614,94.46303935,356.9080259,351.4757591,right
0.140376195,0.228710607,0.957728624,0.126177564,-0.055538543,0.079202883,102.3926636,356.4807783,356.153812,right
0.136012167,0.210986748,0.976493299,0.056342475,-0.075931147,0.033778295,108.7127469,356.4249808,357.6976495,right
0.128738791,0.199818283,0.960409284,0.007492726,0.039015301,-0.104937971,112.3434432,357.4146539,358.4253807,right
0.062551044,0.04613059,1.003299952,-0.053593799,-0.027263578,0.324805737,202.0123013,20.75042376,344.6445975,right
0.07467334,0.043459874,1.012316704,0.126306012,0.045123953,0.21454455,204.1134178,20.00324034,348.1042984,right
0.062308598,0.054385535,0.990871429,0.128444046,0.00602858,0.238979161,205.8612222,18.85095328,351.3077809,right
0.073461115,0.063368864,0.984535277,0.109201789,-0.034288529,0.335190445,208.1766973,18.3828087,354.5924402,right
0.083643839,0.089104876,0.954804242,0.184643656,0.043902226,0.434761494,210.91895,16.74181818,358.0212457,right
0.120980509,0.123338632,0.998913348,0.468695998,-0.083463177,0.368177176,213.3930221,13.14635367,3.807598236,right
0.150558904,0.296206951,0.952367306,0.088432372,0.054592364,0.218820617,215.635701,11.70333534,5.839622629,right
0.153468266,0.249347985,0.960409284,0.031807333,0.023982067,0.147601247,216.1312586,10.65084844,6.901459206,right
0.136254609,0.240364656,0.941644609,0.0041246,-0.017438296,0.027808845,215.3602395,9.449280703,8.205014896,right
0.153225824,0.229681775,0.951148808,-0.04122458,-0.008340992,-0.001582275,214.1546565,8.510471201,8.236183611,right
0.048004292,-0.064166084,0.951636195,-0.016484536,-0.036440793,0.528648794,295.8556854,334.0286052,31.71605854,right
0.064248167,0.000728378,0.99842602,-0.017706268,0.010290397,0.499021798,295.4885559,333.2545245,28.78784375,right
0.064975508,0.010925665,0.945543826,0.063538812,0.026478326,0.399450749,293.1705741,333.0929274,25.94002882,right
0.05891436,0.016509894,0.982342005,0.116989516,-0.063624293,0.390898645,290.816003,332.7332069,25.96980673,right
0.070794202,0.04224591,0.992577255,0.106910244,-0.03827339,0.40097791,287.9069435,332.9221453,25.30039185,right
0.066187732,0.018937821,0.999157071,0.00184142,-0.023612622,0.367685765,286.0970527,332.2923029,23.17597591,right
0.081704274,-0.017850716,0.936039627,0.083697364,0.184386984,0.30812639,284.5580198,333.6791898,20.28659416,right
0.025214376,0.000242793,0.966257989,0.160666376,0.135212347,0.456261218,283.721103,335.1904904,19.14339466,right
0.028851066,-0.010131488,0.991115034,0.099274427,0.041749958,0.272085339,282.2534661,337.0865185,19.69708224,right
0.011152512,0.010197288,0.976980627,0.11882212,0.033808708,0.229019359,278.1839643,337.8255142,20.79221086,right
0.010910066,0.03132024,0.999157071,-0.0399106,-0.009022139,0.21938248,322.0223997,340.0262712,338.5174312,right
0.011637404,0.016752686,0.986484826,0.129909948,0.100017309,0.514430404,318.7794498,342.4834949,340.7548082,right
0.026911497,0.124067008,1.025963783,0.257886201,0.168739647,0.694941103,319.8873509,345.3423389,341.8763628,right
0.006788486,0.050258063,0.98404789,-0.172773778,-0.061556552,0.288715661,315.7384925,345.4944455,340.7270418,right
-0.000493671,0.049286895,1.019383907,-0.012727095,0.026408045,0.405390918,312.8412833,345.2716396,341.0456752,right
0.016728768,0.052443195,0.949686646,-0.11840678,-0.013603628,0.323534995,309.0051178,345.3516502,340.6557892,right
0.007515823,0.024522049,0.975762188,0.001017374,-0.012381896,0.267946243,303.8934759,345.122651,342.1428871,right
0.020850349,0.050500855,0.999888182,0.167478159,-0.007494975,0.24931486,298.930459,344.7992808,344.0026246,right
0.013092079,0.05754184,0.999644458,0.114027448,-0.006884109,0.306430757,295.3605445,344.4916815,346.4403507,right
0.030305739,0.106585942,0.999400795,0.1205194,0.044582769,0.080260381,290.692602,344.6750021,348.4943167,right
0.015516539,0.022579709,1.004031062,0.094472006,-0.015221845,0.014572844,283.7239103,339.6088664,1.755560748,right
0.030790633,0.034719341,0.987947047,0.185185492,-0.018581603,0.389644116,281.7041892,339.8505202,2.288074525,right
0.027153943,0.116783224,0.960652947,0.497337639,-0.002699107,0.591535091,282.5157932,340.6081179,6.410388668,right
0.054550331,0.227253839,0.965039551,0.076146051,-0.113265723,0.428739488,283.0163368,339.1370728,6.479162697,right
0.060611479,0.108528279,0.942863107,-0.011818547,0.140854225,0.486466259,282.98918,342.0829026,4.332619509,right
0.055277668,0.132807538,0.954316854,0.025749668,-0.028355446,0.597643733,286.0568092,342.6286826,3.457744421,right
0.106918648,0.234780416,1.059350252,0.008034575,-0.090663701,0.515482366,287.4049041,341.2882187,3.34010295,right
0.138921499,0.181608856,0.979905009,0.154445603,-0.038689658,0.041054562,283.003175,340.556673,7.003518027,right
0.095038801,0.203460172,0.964795828,0.039797038,0.043731183,-0.083729267,276.7065261,341.1851699,10.4128189,right
0.102797069,0.170440391,0.959678233,-0.071711466,0.026690427,-0.0264835,271.1690117,341.9343528,11.22044694,right
-0.029620279,0.011654044,0.968207598,-0.108668819,0.075559646,0.271618754,308.9214992,4.555563714,335.0222919,right
-0.052329157,-0.023640137,1.003299952,-0.014595568,0.073727056,0.5709427,306.4301911,6.961262208,336.646043,right
-0.063683592,0.096145861,0.975031078,0.164998814,0.032188214,0.527571261,305.3919341,8.538790019,340.2510527,right
-0.054550678,0.082306683,0.991846144,-0.06377022,0.003782982,0.43685779,303.2618679,9.149332945,341.5955669,right
-0.056525361,0.058998596,1.026938558,0.154003233,0.141533092,0.462208688,300.8057011,9.90120956,343.4898311,right
-0.050354473,0.113141336,0.940426111,-0.057356134,-0.025233116,0.646384597,301.3014909,10.83214471,344.7465825,right
-0.054303844,0.15708679,0.994039416,0.218144089,-0.104340166,0.589574099,303.5155274,8.808099256,349.3936904,right
0.001939567,0.202731803,0.985022664,0.106427014,-0.01047989,-0.064980365,297.0272131,7.152632155,350.9771152,right
-0.011107604,0.169954807,0.966257989,-0.033959351,-0.012447599,-0.057666916,290.4704091,5.60866021,351.7492647,right
-0.019500017,0.152230948,0.987703323,-0.069371209,0.003443602,-0.003505633,284.8048082,4.564781481,351.368526,right
-0.132797584,0.07550849,0.974543691,0.068363376,0.024705593,0.025505556,283.8002103,12.29362846,2.089601394,right
-0.094784886,-0.084187843,1.033762097,-0.17537187,-0.120069474,0.71364522,283.3393433,10.75443338,358.1993165,right
-0.105645664,0.085705779,0.891443074,0.191452712,-0.171382159,0.889574409,289.8237746,9.790931887,1.465529358,right
-0.03060762,0.272898853,0.992089868,-0.201028213,-0.04157329,0.968070626,296.309449,9.655656576,0.040922238,right
-0.087132983,0.232352495,0.955779076,0.343252718,-0.107241303,0.313223094,295.1060653,8.509562786,5.11126449,right
-0.086639315,0.190592185,0.967232823,0.080978587,0.006790306,0.061322227,289.2820996,7.669530627,6.216098815,right
-0.051094979,0.223611966,0.958947122,-0.001577448,-0.053500742,-0.017405612,283.7526312,6.805746057,6.763079146,right
-0.043936744,0.199332699,0.961627781,-0.07500492,-0.009709783,-0.037910357,277.8397979,6.360347714,5.604364874,right
-0.063189924,0.169954807,0.985753715,-0.001809118,0.012750307,0.009754111,272.7789146,5.895037662,5.727330051,right
-0.058253214,0.174567848,0.975274801,0.004615659,-0.008761607,-0.002328839,267.832273,5.181806257,5.945217354,right
-0.170810267,0.083763435,0.959190845,0.04575675,0.00691635,-0.007795397,261.0053487,12.29525404,16.43742568,right
-0.171303928,0.095417485,0.968938649,0.028564787,0.011897603,-0.009004954,256.3416136,12.78556259,16.24539491,right
-0.171797618,0.085462987,0.976736963,0.024451625,-0.003317025,-0.007542612,251.7415563,13.06755207,15.8221981,right
-0.180190027,0.081335515,0.973568916,0.006646061,-0.022466753,-0.000146827,247.5394122,13.33452453,15.51457833,right
-0.150076076,-0.047762729,1.061787128,0.02283399,0.118337683,0.740832686,247.4019546,13.3181483,14.26149902,right
-0.102436796,0.039332394,0.976980627,0.462351531,-0.017274398,1.014805794,255.4010419,9.294879154,20.62632264,right
-0.001234178,0.344279885,1.027425885,-0.135380104,0.082602069,1.176990509,267.0869833,3.115333804,10.03087729,right
-0.077259555,0.416146457,0.861712039,0.668518543,-0.022466753,0.082014546,265.4632424,2.988506156,17.33492108,right
-0.059240557,0.345251054,0.919711947,0.045299418,-0.02984871,0.060152613,261.6008797,1.573280714,17.91233673,right
-0.067139298,0.347678989,0.968207598,0.158090591,-0.044395469,-0.009581719,257.3225039,1.28399691,18.42545981,right
-0.014810139,-0.103003457,0.999157071,0.20818153,0.213389665,0.860901296,348.9108728,7.745872505,5.314123243,right
0.012364741,0.169954807,0.903384209,0.230783552,0.230188459,1.097916961,354.6572852,9.777823047,12.74492467,right
-0.001974685,0.25226149,1.035224199,-0.592357397,-0.031567298,0.733535886,354.5502505,8.425317525,10.15337929,right
0.040003575,0.261002004,1.027913332,0.145567834,0.038987637,0.520954788,352.0353181,6.263599365,12.54880433,right
-0.002715192,0.236479968,0.937258065,-0.009398391,-0.064163789,0.070909992,344.0905428,5.050181681,13.00744982,right
0.009940282,0.194476858,0.969182372,-0.010922506,0.012400361,-0.012942303,335.0871309,5.081218061,12.72197097,right
0.009697837,0.200789452,0.972594142,-0.021140939,0.014152095,-0.016946185,326.3254974,4.997448352,12.22737392,right
0.014304309,0.194234058,0.988190711,-0.083385587,0.038502894,-0.007840002,317.701038,5.110459808,10.72152723,right
0.019638117,0.180637673,0.971619308,0.037815128,0.012312375,-0.09105432,309.4580072,5.422187934,10.64630465,right
0.007030932,0.2126863,0.978199124,0.037394915,0.071093738,-0.100310795,302.1683853,6.548029787,10.78177121,right
-0.093303874,0.046858966,0.975518465,0.047918219,0.007036587,0.001901791,297.901935,8.93796335,21.63733749,right
-0.087379821,-0.007719229,1.008417487,0.105950415,0.131042227,0.402934819,294.3760137,9.868941186,21.73233688,right
-0.07182917,0.029863488,1.07153511,0.375036567,-0.006097015,0.770370245,294.8374135,7.133308697,26.50192287,right
-0.052329157,0.115569271,0.937501729,0.011266302,0.144786701,0.96554172,298.6755359,4.803797121,27.96051147,right
-0.047392443,0.216813758,0.948955536,-0.169244379,0.098055512,0.859556615,301.7686143,1.777746376,27.2923226,right
-0.030360786,0.383612245,1.005736828,0.189944386,0.206789523,0.497924358,303.6911384,358.7768148,28.49073223,right
-0.047639281,0.3306835,0.869266629,0.366484433,-0.007929612,0.594441056,303.7391547,356.8319521,33.9792144,right
-0.024436731,0.407163143,0.886325419,0.011569612,-0.057247497,-0.033922449,296.9541506,356.9955103,35.55095704,right
-0.016291153,0.393323988,0.924098432,-0.024509214,0.004352227,0.006903475,290.1258739,358.1634353,34.87685494,right
-0.012588618,0.399393797,0.907527089,-0.064719081,-0.004098967,-0.007367232,284.2167016,358.6179138,34.20546442,right
-0.069607653,0.05827022,0.984291553,-0.044215918,-0.006395023,0.008221349,292.6669843,350.761907,23.97767961,right
-0.066151954,0.061183728,0.991358757,-0.059644803,0.045953393,-0.057937354,285.85663,352.9614529,23.34167801,right
-0.07972791,0.041760322,0.986241162,0.028266681,0.089145765,-0.052029904,279.2719383,356.2532511,23.60691304,right
-0.099968441,0.02913511,0.959190845,-0.168431923,-0.069068335,0.131535098,274.5117882,357.1820966,21.72898155,right
-0.037519019,-0.094801776,1.020115018,0.182510167,0.000570303,0.83616817,275.9259174,355.0467699,21.19217991,right
-0.004936713,0.13450709,0.973568916,-0.043509983,0.072041541,0.646799922,276.8819185,354.2505653,21.74900937,right
-0.053069666,0.13159357,0.996720076,-0.08565969,0.062267691,0.570747197,276.203872,353.8866575,20.89739919,right
-0.036284842,0.05681346,0.960652947,-0.180343792,0.099530473,0.868544042,279.6699744,352.9758292,18.29823047,right
-0.02665825,0.181123272,1.008904934,0.093629263,0.052188419,0.734153688,284.3093189,351.2165125,18.58626979,right
-0.022462046,0.161942646,0.999400795,0.31079185,-0.047993481,0.516991079,284.647707,348.0240718,22.55191177,right
-0.046158265,-0.002171033,0.994526803,0.036477342,-0.007899988,0.012598081,280.0166133,345.3882822,26.70715981,right
-0.044430416,0.003884681,0.991358757,0.038187277,0.007561861,-0.049571633,273.9283876,347.7363731,26.87166491,right
-0.038259525,0.005827022,0.996232748,0.008876003,-0.009900894,0.01442132,268.2379931,349.4588137,26.59926672,right
-0.038259525,-0.034254078,0.995257914,0.081263535,0.002621843,0.400793582,265.5672116,350.0142165,24.72896797,right
-0.029373443,-0.000241226,1.030837655,0.237950474,0.042328082,0.671101451,267.1551827,348.525441,25.58288676,right
0.021577686,-0.019539297,0.999644458,0.212294132,0.124794893,0.895594418,269.1650342,348.3114623,26.90340822,right
-0.058746886,0.08959046,0.959921837,0.319806427,0.123878591,1.33999896,273.9497115,346.4158397,26.63060363,right
0.019638117,0.29110828,0.895342231,0.062021278,0.072260484,0.983864427,277.9888395,344.219239,25.22112579,right
0.008243161,0.294021815,0.946274877,-0.003952168,-0.174223647,0.437445492,277.2415485,343.1519058,25.10852159,right
0.000969784,0.187678665,0.973568916,0.487183481,-0.110388234,0.429504246,275.7991013,341.1368241,27.89086403,right
-0.012588618,-0.00410084,0.990627706,0.039596781,0.009681072,0.006044537,272.0496143,342.7361044,34.82134599,right
-0.011107604,-0.007960455,0.995745361,0.031917814,0.027413037,-0.003929413,266.9705149,345.2518867,34.32224016,right
-0.015056974,-0.002894711,0.992820978,0.050396375,-0.001798399,4.36E-05,261.9473479,347.5722847,33.92280387,right
-0.019006344,-0.007960455,0.989652932,0.033756912,0.009136889,0.014431206,257.5106619,349.5831351,33.52631139,right
-0.002715192,-0.03642511,0.998669684,0.235352591,-0.010590028,0.192997649,254.7400572,350.5562321,32.56744162,right
-0.004443042,0.040789153,1.002568841,0.261619806,0.092951633,0.908931732,259.2167885,347.9867457,32.92897037,right
0.031760417,0.205888107,0.966745377,0.053314757,-0.112299092,0.70276469,263.3951704,342.9791959,31.10486248,right
0.024002146,0.1539305,0.976005912,-0.513873637,-0.034719206,0.681384444,264.5271855,341.8112575,28.83362651,right
0.045094937,0.261002004,0.974056304,0.147082582,-0.006313968,0.393056035,266.4974901,340.2601557,26.79884314,right
0.037821561,0.100273333,0.969669759,0.302853197,0.00987396,0.605331719,266.1205115,340.1991108,27.17472041,right
-0.008639248,-0.025087493,0.974787354,0.052872665,0.075534992,0.00703886,257.8640559,10.23882752,53.75646769,right
-0.008639248,-0.012302521,0.997451186,-0.032688621,-0.03430995,0.076360732,253.4218443,11.97188386,51.59226078,right
-0.00172785,-0.044385564,0.989896595,-0.113017395,0.019140758,0.261758327,251.3359728,11.46059554,49.54545458,right
-0.01135444,-0.070679188,0.959190845,-0.126761869,0.119322658,0.649352312,252.5501482,7.811992151,47.57568266,right
0.060853925,-0.097937718,1.028400779,0.270300537,-0.059966292,0.829863012,253.1753359,1.494456063,47.13773776,right
0.00533381,0.008254947,0.981123507,0.183863103,-0.009569909,0.91660589,256.4806421,354.9333938,45.5326194,right
0.004121581,0.001456755,0.967963934,-0.165857241,0.042048201,0.775190532,259.0153799,351.2794791,41.54521985,right
0.000242446,0.079393171,1.009392381,-0.175020233,0.011810374,0.544283509,260.9641285,347.9862667,36.65556939,right
-0.016291153,0.036418889,0.999400795,0.104756057,-0.007737312,0.264507204,259.1551597,347.68671,35.55243578,right
-0.019500017,0.021851331,0.972350419,0.082925618,-0.011550805,-0.076689117,254.7867961,349.9402455,35.28997552,right
0.052368317,0.086434156,0.986484826,-0.068017155,0.018674862,0.015363775,255.2004119,353.3940212,24.05878469,right
0.063520834,0.083763435,0.983560503,0.044300169,0.018485561,0.017114956,251.3603156,354.3931169,23.01790655,right
0.055277668,0.026221598,0.999400795,0.160059124,0.0160421,0.049490813,247.2503176,355.1852332,23.44734616,right
0.056974791,0.038361229,1.005493283,-0.055270869,0.05941353,0.75137496,250.7487268,353.5677248,21.13993067,right
0.052610762,0.067739129,0.962602496,0.135624528,-0.091775618,0.622177005,254.2865053,350.699141,20.46992497,right
0.084613629,0.068224713,1.016703248,0.049797952,0.042309307,0.528714597,256.2841375,349.4224557,20.76183872,right
0.064975508,0.106585942,0.990140319,-0.171029836,0.09423285,0.721747994,260.9365619,348.4806486,18.31940747,right
0.078310028,0.171411559,0.966501713,-0.04732962,-0.060621493,0.936161697,265.8373729,346.8895808,14.03157863,right
0.090189874,0.152473733,0.942619443,0.140511453,-0.008087078,0.156392217,264.7763849,347.1741427,15.18946986,right
0.082916506,0.082549475,0.999644458,-0.017377578,0.018545724,0.012915671,260.7480282,347.8192447,14.49279057,right
0.048004292,0.031805828,0.988190711,-0.016699949,-0.00362079,0.006045146,254.3082389,347.5063947,14.60386823,right
0.058429465,0.03132024,0.992820978,0.042187635,0.011437774,-0.010954154,249.5947186,348.6280928,14.61299165,right
0.051883429,0.006798192,0.999157071,-0.024244891,0.030102747,0.046899226,245.6401415,349.6453367,14.46999823,right
0.062308598,-0.085876413,1.04009819,0.146186516,0.068892688,0.736260653,247.2580494,349.7572742,14.00138834,right
0.059884142,-0.012061295,0.935308516,-0.104268238,-0.029151181,0.535591364,248.6528082,350.4226396,12.66437966,right
0.071279101,-0.000482452,1.024745226,0.106480271,-0.108563662,0.753364921,251.068769,348.530953,11.42073967,right
0.095523693,0.078422002,0.999157071,0.144353911,0.03651683,0.808037281,255.1324174,348.0253644,10.95634743,right
0.079037368,0.092503972,0.958216012,-0.146417946,-0.035870701,0.822698116,260.0857184,346.9310623,9.346425738,right
0.095766135,0.105129182,0.979905009,0.180089533,-0.073438913,0.520319819,263.9647399,346.1621836,8.898902352,right
0.071279101,0.167284086,0.959921837,0.024916448,-0.030685402,0.039428461,262.4047042,345.4973279,10.85856046,right
-0.010120261,0.080607139,0.993552089,0.005580962,-0.004048862,-0.003021687,258.6949826,343.6363489,4.80049942,right
-0.00789874,0.049529687,1.009392381,0.060318947,0.022521716,0.050424833,254.24577,344.6777581,5.469794353,right
0.021577686,-0.07429757,0.98063612,0.096054569,-0.073078699,0.917242587,258.7202133,344.6496706,4.555891563,right
0.040973358,0.084006228,1.0052495,0.021529004,0.076888725,1.015591979,267.0243026,345.1131604,5.817566241,right
0.024244592,0.214871436,0.974787354,0.009922568,0.165464178,0.866846204,274.6172532,346.3971754,3.4040967,right
0.042912927,0.247891217,0.977711737,-0.0609378,-0.107898012,0.519569337,277.3746757,344.3471735,0.809359381,right
0.024002146,0.21001558,0.955291629,0.25304693,-0.026347505,0.011024023,273.6179828,344.0531731,4.13337478,right
0.016971214,0.159514725,0.98063612,0.029983416,0.012629348,-0.018867409,268.2052765,344.4878703,6.031382325,right
0.014304309,0.171411559,0.979661286,-0.020722441,-0.004752832,-0.015825016,263.3988655,345.1320442,6.613688822,right
0.020607902,0.166798487,0.983560503,0.009925414,0.010301611,-0.040786944,258.4247666,345.7901808,7.757722029,right
0.022789916,-0.08973603,0.9669891,0.031305697,0.081467412,1.205072761,24.32449783,13.63807094,350.044697,right
-0.011107604,0.129894033,0.972594142,-0.086285859,-0.001915693,0.767387807,43.40953365,15.84564272,351.6855279,right
-0.029620279,0.111198999,0.960652947,-0.169974402,-0.129281104,0.589626014,60.13452908,15.70809125,354.3722144,right
-0.01875951,0.075022906,1.021577239,0.215176135,0.041150305,0.506853759,74.08106502,15.77499637,356.4345977,right
0.009212945,0.139605731,0.998913348,0.206929445,-0.006802615,0.490054965,88.05720984,16.06677181,1.144107486,right
0.003636689,0.163399413,0.97040087,0.159281954,-0.052006647,0.084134996,96.1271603,14.75001891,4.707388574,right
0,0.139362946,0.976736963,0.081764601,-0.019495308,0.065358065,102.2823833,13.79025866,6.583889133,right
0.016728768,0.136206642,0.984535277,0.026279256,-0.068460867,0.085003965,108.2680811,12.66478094,7.052859313,right
0.024244592,0.160971478,0.98136723,-0.021451287,-0.004063495,-0.040756188,112.88951,12.19065311,7.253963134,right
0.008000716,0.13426429,0.983073056,0.004525583,0.023461383,0.006048632,117.4936381,11.41331099,7.805844127,right
-0.002221521,0.044673834,0.992089868,-0.006433509,0.028208431,0.013733036,125.5681375,17.92747926,4.801329288,right
-0.025424073,0.012139629,1.028156996,-0.101423055,0.102733985,0.263576925,131.0149948,17.43570052,4.703635385,right
-0.039246868,0.034962133,0.975762188,-0.086456858,0.05966799,0.337491602,137.1088895,17.66987697,3.032477206,right
-0.077012725,0.132564738,0.988678098,0.31091097,-0.009665214,0.67071861,147.5108305,15.01521466,8.472935897,right
-0.031348128,0.078664787,0.950174034,-0.150292277,0.153435811,0.368645728,154.9559826,15.96338835,10.10391591,right
-0.059487391,0.086919747,1.014022589,-0.052248403,0.043174628,0.253803074,159.7299023,15.37738032,10.16084981,right
-0.066151954,0.052685987,0.999157071,0.158500105,0.076466784,0.427899659,165.9036557,14.24302848,13.20657118,right
-0.075284868,0.163156614,0.972106695,-0.038198501,0.118921921,0.452945143,172.5918589,13.02654191,15.47893157,right
-0.040234212,0.158057958,0.985997438,-0.066909172,-0.088466838,0.739440918,180.9192428,9.24176931,15.39488439,right
-0.055044349,0.212200716,0.959190845,0.14017415,-0.036543284,0.280375719,185.8234416,6.701784175,17.03789152,right
-0.044430416,0.111927383,0.977955461,-0.067099079,-0.022695027,0.002600796,186.5094658,1.953157907,11.66484381,right
-0.045911428,0.112898543,0.981854618,-0.011706267,-0.002990961,-0.021170804,186.0684132,1.981907027,11.09656438,right
-0.04467725,0.111198999,0.979905009,-0.019708317,-0.005955074,0.002401367,185.5989743,2.174943754,10.6823006,right
-0.045170926,0.089347668,0.993795693,0.009485986,0.045115579,0.028513003,185.2487768,2.635668402,11.00810831,right
-0.080715261,-0.032565497,1.046677947,-0.066261306,0.407053262,0.694661558,191.6456178,5.713428908,12.47769779,right
-0.027892428,0.038846813,0.947493374,-0.242190495,-0.139671162,1.037967801,203.7515817,3.526158797,9.075606176,right
-0.042455733,0.186221898,0.999157071,0.042778138,-0.203506574,0.873034239,212.7548775,359.8535831,6.997380248,right
-0.017031658,0.196176395,0.993552089,0.018038098,0.136439934,0.367543221,217.9038566,0.435982447,7.060902715,right
-0.059734225,0.253718257,0.947005928,0.081873521,0.018542942,0.151602358,219.3028569,1.207574884,10.95992901,right
-0.035050664,0.234780416,0.951148808,-0.034497246,-0.006379168,0.022167344,218.1729251,1.064773131,11.82855149,right
-0.025917742,0.075022906,0.985266328,0.01001681,0.006493973,-0.004889342,216.8109034,3.430098803,9.64934975,right
-0.026164578,0.064825617,0.985997438,-0.009368099,-0.001565402,0.013614379,214.4813034,3.308197215,9.510486028,right
-0.028139263,0.0587558,1.01207304,0.056596622,0.038211264,0.05661815,212.5898465,3.500312081,9.233043744,right
0.058429465,-0.01881562,0.998669684,0.099051766,0.243156552,0.356858402,212.7190736,5.770773042,9.670679577,right
-0.044430416,0.158057958,0.904115319,-0.067409024,0.087691352,0.767359912,218.7657172,6.082277053,10.25964594,right
-0.043196239,0.066039577,0.998669684,-0.187444031,-0.030511077,0.574326456,221.7265632,4.818548622,8.031668964,right
-0.032335471,0.211229533,0.968451262,0.182740301,0.120678067,0.637856483,228.3261242,5.080956806,11.12773395,right
-0.036531676,0.195205227,0.952367306,-0.696294785,-0.076631397,0.931682646,233.4221966,4.304831312,8.886152096,right
-0.033569649,0.256631732,0.939207673,0.09263768,-0.18475455,0.683671355,236.8482605,2.450382872,7.602364254,right
-0.036531676,0.337724477,0.972594142,0.235580146,0.022939632,-0.002024916,235.5162234,2.113750168,11.5670372,right
-0.050354473,0.129894033,0.999157071,-0.013727754,0.021582004,-0.002563069,229.5020779,0.396729163,8.735938307,right
-0.056525361,0.128680065,0.982585669,-0.011693731,0.005362187,-0.044268746,225.9013661,0.779956537,8.117200008,right
-0.03060762,0.140819684,0.992577255,0.035433888,-0.081946626,-0.098863177,222.5287279,0.13317088,5.892090862,right
-0.060968406,0.024522049,0.927510202,-0.213799134,0.20729807,0.708700716,227.7469925,2.834023285,3.822547386,right
-0.064424105,0.123338632,1.012804031,0.065060854,0.111392222,0.577364683,231.3387157,3.047448127,4.175882463,right
-0.059734225,0.090561636,0.964064717,0.361025095,0.129107326,0.76734376,237.5977918,3.680385109,8.750118633,right
-0.057512704,0.458149582,1.001593947,-0.503654659,0.031368878,0.889822245,247.5797103,1.927589734,7.090483837,right
-0.075531706,0.270713747,0.914350629,0.394928098,-0.031244811,0.487872869,250.4441345,1.43817477,11.89737845,right
-0.051341813,0.333839804,0.919224501,-0.010557361,-0.015811732,-0.034836855,247.0288692,1.263836433,13.48409628,right
-0.051094979,0.277511895,0.938232839,-0.142059416,-0.033143394,-0.008379707,243.6181801,1.267287386,12.67225487,right
-0.100708947,0.115812063,0.973325253,0.044535805,0.04260461,-0.05294342,232.5596257,16.85810386,32.99451969,right
-0.11156971,0.142762035,0.975518465,0.048240378,0.011982689,-0.015522829,229.2062897,17.05754197,31.51188711,right
-0.102436796,0.128437281,1.028888106,0.481038392,0.07978873,-0.034765087,226.1674019,17.49231083,31.25394502,right
-0.086639315,0.033262581,0.897535443,-0.243447781,0.080705032,0.812810421,231.8342323,16.49580331,32.27950134,right
-0.06195575,0.214871436,0.964795828,0.02441664,0.310390353,1.077009678,240.3544971,12.53113292,34.41549615,right
-0.063683592,0.329955101,0.963333607,-0.091036893,0.082537621,0.549527526,246.6581197,8.967828352,30.64471947,right
-0.105151981,0.329469532,0.944812715,0.394600987,-0.144704252,0.413304567,246.9263207,4.723554778,36.66889167,right
-0.051835485,0.296206951,0.922148883,-0.147280112,-0.074105471,0.018822394,244.2438118,4.429417804,35.2468497,right
-0.057512704,0.2576029,0.962602496,0.00097191,-0.007204222,0.026463354,241.1573995,4.534363661,34.04227413,right
-0.054303844,0.255660564,0.966745377,0.040735919,0.011137484,0.010680761,237.9940111,4.739258664,33.33577985,right
-0.045664594,0.170683175,0.973325253,-0.254617423,-0.144022301,-0.1059945,246.6617807,348.8034536,339.5543154,right
-0.05405701,0.275326788,0.947493374,0.150997087,0.206003487,0.163091645,243.9514933,349.5433612,342.2079275,right
-0.00567722,0.149560213,0.984779,-0.102741651,-0.020384112,0.012083657,239.4719001,349.1780767,343.0974897,right
-0.064177267,0.140819684,0.999157071,0.021121658,-0.002138447,-0.046484105,235.6107259,348.4393482,344.0938247,right
-0.016291153,0.018209444,1.004031062,-0.059207119,0.172874451,1.007869244,242.1872418,354.1357486,344.4563678,right
-0.002221521,0.186221898,0.98063612,0.00493373,0.043371014,0.98740536,249.781012,357.3466916,345.1687821,right
0.00121223,0.280425429,0.933846354,-0.071729861,0.066278458,0.775129676,256.0775585,359.3027968,346.2391223,right
-0.012094947,0.318301082,0.938720286,0.044029105,0.158213675,0.269027799,256.1376095,0.360781504,346.6100058,right
-0.014316468,0.322671324,0.948224485,-0.045599472,-0.084985115,0.133575812,254.9778639,358.7278949,347.8331501,right
0.006061148,0.254689395,0.969669759,0.041798435,0.009971274,-0.014699568,251.1028516,357.8828896,349.8869359,right
0.017456107,0.02840673,0.995745361,0.071676753,0.041730572,-0.002619074,244.919659,8.701460366,4.949767228,right
0.010910066,0.026221598,0.994770527,0.018794712,0.009411773,0.003860531,240.8650948,8.416574029,4.960655404,right
0.004364027,0.034233753,0.999400795,0.187082782,0.068196952,0.005741177,237.0966608,8.643129697,6.075094682,right
-0.009132919,-0.022434007,1.005005836,0.181890413,0.164102793,0.74061203,239.9279655,9.861396388,9.801514412,right
-0.017278496,0.032534208,0.983560503,0.054830451,0.089882672,0.708847046,245.4522908,10.01080592,11.20253989,right
0.015758984,0.142519236,0.933358967,0.386224866,-0.111397423,0.817886531,251.2805595,6.53370005,16.80244124,right
0.093099229,0.28552407,0.898510277,-0.33856675,0.101183675,0.740001202,258.8067108,4.488707261,13.02282116,right
0.003151797,0.27459839,0.94578743,0.377061874,-0.062528208,0.116918653,255.9432838,3.064820927,18.19618915,right
0.013334526,0.229196191,0.961627781,-0.100379385,-0.011929343,0.033217728,251.8219271,2.436423246,17.23582357,right
0.021820132,0.177966952,0.98063612,-0.039480273,0.001163155,0.025474235,248.0883818,2.42716343,16.41807576,right
0.015274093,0.070895426,0.997207463,0.006408639,-0.024837624,-0.009018462,241.4124251,358.7134232,16.02549868,right
0.046549615,-0.034495305,1.04350996,0.053750694,-0.0770666,0.436913162,240.5393767,358.0877825,14.815447,right
0.059399247,0.02840673,0.893392682,0.091013484,0.14651008,0.976001799,248.1460286,358.4259698,14.60066658,right
0.064005725,0.222155213,0.930434585,0.231817931,0.092143074,0.760977209,254.7924925,357.0435821,17.33122082,right
0.035639551,0.251290321,0.994770527,0.273967624,0.014563183,0.357806116,256.3836056,355.9040734,20.14341461,right
0.046307173,0.303005129,0.912400961,0.042624623,-0.034759976,0.107553482,254.0600845,356.8538573,20.88842944,right
0.049943861,0.320243418,0.945056379,0.125091434,-0.072939053,0.231559128,251.9617206,355.6096445,21.92708948,right
0.055277668,0.300334424,0.948224485,0.047002956,-0.037639026,-0.050614864,247.2913124,355.5733621,22.57468533,right
0.064975508,0.280425429,0.944081604,-0.037410405,0.00495211,0.003785476,243.8055458,355.9946789,22.41743047,right
0.058429465,0.295721382,0.942863107,-0.183624133,0.002079099,-0.002423856,240.5097337,356.1755662,21.17146565,right
0.05891436,0.22409755,0.992577255,-0.036711045,0.070496008,-0.23333092,208.7595174,17.34185201,5.317728302,right
0.050428752,0.108042702,0.965283275,-0.13170059,0.059805863,-0.209812611,203.9989165,17.08310908,3.63142802,right
0.03733667,-0.002894711,1.075434208,0.131276891,0.2867423,0.500318229,205.9478427,17.40296513,2.977771233,right
0.080976941,0.02840673,0.921174109,-0.182707846,0.436709732,1.163412452,219.6272089,21.76589872,8.015649609,right
0.010182728,0.156358421,0.940182447,0.419605315,0.120281518,1.012834191,231.4712624,20.05189349,15.84306091,right
0.020850349,0.21559982,0.937989175,-0.191565394,0.056446105,0.985039771,240.6675657,16.11552057,18.56330157,right
0.035397101,0.30227676,0.974543691,0.107453153,-0.106044039,0.472218454,243.945032,12.73907547,18.36882389,right
0.025699267,0.243763745,0.934577405,0.193890586,-0.048011851,-0.109325275,239.3963992,11.95986443,21.15944452,right
0.027396388,0.247162849,0.970644593,-0.135111094,0.023966979,0.00857622,236.2563153,11.38536527,18.81952416,right
0.034912214,0.185493529,0.978199124,-0.097525962,-0.014420716,-0.077187784,232.688607,11.07589367,16.65246394,right
-0.01875951,0.047344554,0.989652932,0.101471871,-0.027814392,-0.025106039,189.1759443,11.59766463,16.46357848,right
-0.017525332,0.082549475,0.966501713,0.025927048,-0.058935907,-0.019577226,188.1178387,10.62392127,16.27895163,right
-0.064177267,0.085462987,1.003787279,0.17601569,0.047847234,0.036918037,187.3901231,10.65549723,16.78752581,right
0.038791347,0.100273333,1.019140244,0.152497381,0.039600555,0.120606579,186.4016991,9.402593798,19.36655914,right
-0.007651905,0.021608539,0.967232823,-0.040841479,-0.114337489,0.672828794,190.1623739,7.221167127,18.32423641,right
0.079764709,0.088619292,0.995745361,0.298799604,0.201174408,0.986202657,201.1571753,5.011151846,21.57793192,right
0.013334526,0.19326289,0.932384133,0.542840242,0.188346237,0.613269389,207.9133525,3.423736482,27.36995453,right
0.051398534,0.159029126,0.929947197,-0.165457979,0.206672192,0.772399783,216.8473902,359.9909035,23.7491688,right
-0.010120261,0.382641077,0.989896595,0.449683309,-0.050807502,0.373504817,221.0186004,357.7078568,27.68665333,right
0.023517253,0.411533415,0.916543841,0.325372249,-0.080129027,0.021340976,219.4847448,356.4069209,31.36252112,right
0.032245304,0.094931901,0.98063612,-0.072172441,-0.017249506,-0.005453479,219.3243037,357.6011407,15.84683459,right
-0.061215241,0.121396281,1.002812624,0.041197512,0.043069858,-0.006583942,217.0360127,358.0704871,14.66516576,right
0.060853925,0.05754184,1.010854602,0.110474862,0.117420822,0.092024885,215.2681685,358.9640102,13.23746242,right
-0.033322815,0.03034907,1.027425885,-0.162581921,0.462865114,1.174783587,227.5639024,1.916465277,13.11977314,right
-0.021968372,0.064097241,0.986241162,-0.116767012,-0.075001732,0.788105786,232.6054836,0.643033976,12.0612936,right
-0.011601276,0.101244502,0.961871505,0.093676068,0.013268298,0.825674057,239.0496441,359.2163305,12.7062086,right
0.015516539,0.225311503,0.96016556,0.052748092,0.147353217,0.654020905,244.550938,358.8811307,12.51030255,right
-0.041468389,0.366373986,0.883157432,0.677663207,-0.035295494,0.263678044,245.1523635,358.7888532,20.93597439,right
-0.024930399,0.440425724,0.912157297,0.140712678,-0.037738949,-0.10314656,241.364286,358.9638192,23.97419621,right
-0.021474702,0.333596975,0.917518616,-0.136263072,0.005583538,-0.01997029,237.8070005,359.4558904,22.77914875,right
0.047519401,0.00849774,0.999157071,0.037854448,0.001203338,0.006437804,234.2489364,0.470492618,29.98475585,right
0.048731629,-0.10010875,1.03254354,0.368637979,0.119405761,0.43954125,235.2846253,0.47715995,30.38406237,right
0.066187732,0.089347668,0.954073131,0.315187275,0.326183647,1.188462138,245.2015272,355.9192343,35.73069689,right
0.01066762,0.239393488,0.965039551,-0.1713669,0.20095627,0.755969405,252.2613269,352.9207668,32.52774798,right
-0.003702535,0.196661994,0.967720211,0.115739763,0.038771551,0.516510248,255.2591652,351.4520533,31.40737156,right
0.01187985,0.247648433,0.959678233,0.139563516,0.094054848,0.344857156,256.525414,351.4173986,30.47088432,right
-0.000493671,0.30227676,0.935064793,0.315798134,-0.044306125,0.099594757,254.6818776,351.2375947,33.37043623,right
0.033215091,0.401578903,0.927022815,0.096094884,-0.02991144,-0.043944422,250.683198,351.524595,35.05982205,right
0.019395674,0.30810377,0.935064793,-0.164555401,0.027269267,-0.031608373,246.5978638,352.7218204,32.74435035,right
0.020850349,0.366373986,0.906552255,-0.210675716,-0.017323896,-0.318409592,241.6804418,354.4923314,29.65653453,right
0.048489183,0.079150379,0.995745361,0.026473988,0.014509888,-0.003462286,240.1838517,357.9720699,32.42632308,right
0.048246738,0.112655751,0.992820978,0.061268851,0.055258483,-0.07090205,236.2404966,359.5980956,30.71790153,right
0.056732342,-0.071402863,1.063980341,-0.16688931,0.180485845,0.454747498,237.0270612,0.99335219,25.54976547,right
0.027396388,0.064097241,1.000619292,0.302560627,0.348779231,1.126699209,243.8328393,359.3267994,28.56385452,right
0.004606472,0.064582825,1.001350403,0.026449535,-0.007049773,0.787974536,248.1825223,355.7613929,28.97191393,right
0.060611479,0.095417485,0.966745377,-0.089003995,0.099851646,0.743686795,252.7593023,353.5709688,27.46712422,right
0.056974791,0.16534175,1.000619292,-0.096945249,0.190870553,0.623040915,256.9127608,352.5063596,25.71492456,right
-0.015550646,0.272898853,0.968207598,0.652280927,-0.02995722,0.13954103,255.2600121,351.4155886,32.27421136,right
0.01066762,0.303005129,0.95334208,0.369144946,-0.015601885,0.017062552,251.0370496,351.6628653,37.04253376,right
0.012122296,0.331411868,0.959921837,-0.022964137,0.022041019,0.085980929,247.2526194,352.3077564,36.66488577,right
0.113464683,-0.033771627,1.056182146,0.126392409,0.127720714,0.293064237,285.6582676,327.1751764,49.21456606,right
0.087280527,0.046858966,0.973325253,0.097987175,0.023568181,0.812299728,284.5147847,326.0306313,48.59805611,right
0.128738791,0.066039577,0.978930235,-0.28136012,0.178422526,0.785421669,289.0164941,324.1337273,37.86915399,right
0.094311461,0.072837777,1.004274726,0.123948947,0.020819288,0.603383839,289.5670141,322.8666657,34.65925536,right
0.072248884,0.069438681,0.978686571,0.193587586,0.124360941,0.402103692,288.8023198,323.9534478,33.06392124,right
0.032730199,0.148831844,0.99160248,0.079050362,0.108173013,0.509005129,289.7134876,324.3636144,31.30113138,right
0.015758984,0.228710607,0.932627857,0.489857256,-0.017970657,0.135766432,284.803729,326.2849739,38.02581803,right
0.031517968,0.320486188,0.950417697,0.142274901,-0.07875175,-0.014506406,277.991954,328.1147508,41.51287549,right
0.039518684,0.283824533,0.963089943,-0.082508929,0.011999207,0.029224165,272.1825161,330.5323783,41.51906023,right
0.036851779,0.238907903,0.967476487,-0.129738688,0.032747388,-0.01687346,267.2706061,333.3151254,40.01000848,right
0.04679206,0.045887794,0.980148733,-0.04503762,-0.015569333,-0.045286149,256.9526423,340.1518084,38.54132998,right
0.046064727,-0.004824518,0.993064702,-0.00216583,-0.011797572,-0.085508227,251.6140845,342.9207056,36.83269327,right
0.046064727,-0.030394463,0.992577255,-0.042529471,-0.031427924,0.051076934,247.220135,344.7403516,35.30966012,right
0.036851779,-0.132191792,0.966014266,0.009088639,0.16893588,0.883075416,248.4268109,344.4850255,34.362791,right
0.096493475,0.024764843,0.937014401,-0.154928684,0.295079559,0.971345425,257.9012463,341.4595078,27.67226724,right
0.04218559,-0.031359363,0.962602496,0.192348212,-0.071134165,0.907204568,263.7632835,336.9225205,23.94995929,right
0.063035935,0.055842295,0.977711737,0.133094281,0.060507298,0.66988343,265.519612,336.6805423,22.43974982,right
0.030063294,0.155387253,1.016703248,-0.023898084,0.168019578,0.543739736,268.4389714,336.241952,20.50588933,right
-0.017031658,0.149560213,0.946031153,0.472735345,-0.015239995,0.263047189,266.6666056,335.8474471,25.89263926,right
0.038791347,0.268042982,0.945300102,0.077370033,-0.094351724,0.058249719,262.3016845,336.223034,28.06816208,right
0.106918648,0.091532797,1.005493283,-0.059669696,0.088977739,0.075363331,276.9878821,342.7053583,13.42562559,right
0.106676206,0.070652634,1.002325177,0.020584296,0.059245937,0.199316502,272.943529,343.4375306,12.95444243,right
0.096251033,-0.064166084,1.058131695,-0.009042668,-0.049793508,0.577136636,273.0778652,342.9177225,9.173268489,right
0.111767568,0.105614766,0.979173958,0.175438643,0.072684973,0.881347537,278.7514437,342.5689423,8.280967454,right
0.062066156,0.072837777,0.958216012,0.059374239,-0.004284047,0.449465811,279.3341135,342.444971,4.25256457,right
0.098190598,0.146161139,0.974543691,0.069453523,0.087651178,0.479092777,281.2256798,343.1317038,4.919383986,right
0.025699267,0.211472332,0.950174034,0.622592032,-0.020471975,0.185266599,277.7332948,343.5204423,12.24655223,right
0.043397821,0.396723092,0.923367321,0.250575036,-0.042157691,0.08325211,273.3322009,343.4040183,17.18175408,right
0.071521543,0.343308717,0.968451262,-0.10391596,0.000226963,-0.031882655,267.2607296,344.1770352,16.70310296,right
0.048489183,0.2576029,0.941644609,-0.020022593,0.001831932,0.007918635,262.1114978,344.7842595,16.77445283,right
0.123647422,-0.003377163,0.999644458,0.162903741,0.006479766,0.018960085,259.0328857,348.7725521,52.64227259,right
0.119768284,0.033505373,0.98404789,0.11922273,0.01962796,0.052124515,255.1908701,350.7478036,51.66653226,right
0.084856071,-0.140875921,1.096879482,0.256972849,0.122864187,0.674901664,256.2994372,348.9916287,50.10459435,right
0.123647422,0.043217078,0.968938649,-0.199648932,0.354687542,1.220098853,264.2883474,344.4769966,41.24817151,right
0.059399247,0.087648116,0.985022664,0.040115684,0.163486719,0.871294856,271.4433531,340.1925095,36.68453622,right
0.024244592,0.039332394,0.929216087,0.011099583,-0.00389035,0.798601866,274.2724106,336.7751575,34.70430729,right
0.074915789,0.153444916,0.99428314,0.393806666,-0.035655346,0.635195434,276.6232866,333.6179623,34.17731038,right
0.067157522,0.232595295,0.977955461,0.341272265,-0.058868226,0.221334174,273.4720763,332.4918502,36.21348881,right
0.077825136,0.254446626,0.931653023,-0.011848341,-0.048207499,-0.083278842,267.2832488,334.252212,37.76340558,right
0.053095657,0.191320539,0.990871429,-0.09305156,0.054870181,-0.068877205,262.2134726,337.2803712,36.26777174,right
0.081704274,0.055842295,0.989652932,0.075229697,-0.085313395,0.027707474,255.5542635,320.2062626,33.48637527,right
0.107403539,0.025978805,0.992820978,0.015297933,0.034464009,-0.057079308,250.6774538,323.9596053,33.48975963,right
0.098433048,-0.17464754,1.061056137,-0.056478735,0.04576502,0.551953316,252.0144975,324.0283067,27.72894074,right
0.093341678,0.010197288,1.003543615,0.307596952,0.069588766,0.947183132,261.2497534,322.605872,22.52296884,right
0.065460399,0.039575189,0.95261097,0.140525311,0.13281332,0.64511025,266.2223155,323.6924731,18.89711853,right
0.062066156,0.062397692,0.946274877,-0.387873143,-0.011350883,1.007658839,275.6454357,323.175643,7.76791011,right
0.071521543,0.051714819,0.990140319,-0.085189402,-0.043726742,0.566308677,277.7099355,323.6675259,3.604263931,right
0.07055176,0.133293122,0.994039416,0.571185291,-0.15887484,0.498197198,276.571985,323.0107793,5.926281935,right
0.091159664,0.166798487,0.988190711,0.027177196,0.008192917,-0.028202262,270.8326249,323.527828,9.008965728,right
0.062551044,0.100758918,0.997451186,-0.041785553,0.011977665,-0.037030812,264.550053,325.5257915,9.928527756,right
0.124132313,0.11508368,1.010123372,0.072446249,0.069704428,-0.264883548,234.094137,357.6651316,59.67093682,right
0.077582695,0.020880161,0.987947047,0.005162816,0.016280849,0.007134953,229.7517896,0.194793954,55.75663736,right
0.12219274,0.006555399,0.982342005,0.11878375,0.125014871,0.961917281,233.6532073,353.3836594,55.48528078,right
0.098433048,0.055356707,0.986972272,-0.083718076,0.150976628,0.786293566,237.990596,347.4453524,50.66754879,right
0.088007867,0.037147261,1.015241027,-0.070584476,0.249936819,0.539503992,241.4053627,345.8694238,46.48028425,right
0.028366171,0.043459874,0.940182447,-0.092270188,0.164415658,0.575545013,244.5195602,344.5655176,42.10956082,right
0.121707849,0.110956207,0.992333591,-0.065697551,-0.104670472,0.502241194,246.4069736,340.4334358,37.79222215,right
0.028608618,0.074537314,0.980392396,0.330143124,-0.115666039,0.260644019,244.6807799,339.3047112,40.01981663,right
0.065217957,0.182580009,0.949442923,0.254395843,-0.093980327,0.175428331,242.338148,338.2259597,42.23019562,right
0.097948149,0.172382727,0.985753715,-0.131365329,-0.010874886,-0.017109141,239.062157,339.7352437,39.79169173,right
0.073946007,0.047344554,1.006224275,0.155526221,-0.048229527,0.006001154,203.087496,341.5310114,72.64242228,right
0.050913639,-0.064166084,1.023526669,-0.022235563,0.182677537,0.991937637,206.3687326,333.5179888,67.09402739,right
0.123647422,-0.000241226,0.983316779,0.048624806,-0.050062124,0.90000242,211.0987615,325.073032,59.84866517,right
0.093341678,0.075994074,0.95675385,-0.199386477,0.211388201,0.883509099,220.2838223,319.871235,51.0741158,right
0.053822994,0.113141336,0.979417682,0.115209118,0.108151972,0.887174249,228.608853,314.6307451,43.77312169,right
0.108615771,0.139120147,0.947493374,0.346421599,-0.16582109,0.362746447,230.1952055,313.744125,43.02543454,right
0.094069012,0.231624126,0.957972288,0.185458615,-0.134666964,-0.0141574,226.8659937,315.19205,45.41244223,right
0.11273735,0.213414669,0.971863031,-0.046894751,-0.029000923,0.014707161,224.4824626,317.5198434,43.68690421,right
0.102069736,0.160485893,0.975518465,-0.046660956,0.011406312,-0.000751409,222.5274302,320.256345,41.72946762,right
0.099402823,0.157815173,0.965039551,-0.020947305,0.008444233,-0.001664506,220.7221156,322.8387917,40.11206858,right
0.085583411,-0.028705882,0.993552089,0.234394372,0.088162147,0.405477166,272.119371,299.7450683,39.29463837,right
0.125344545,-0.052587245,1.03668642,0.094811663,0.040820092,1.155619621,286.7243987,297.360943,24.01646484,right
0.096493475,-0.049933761,0.903384209,-0.155643091,0.082358927,0.987937212,302.4370167,299.5599156,3.866803169,right
0.080492049,0.135478258,1.015728474,0.156814486,0.231410041,0.913411677,314.7511306,304.0983202,351.1781371,right
0.058429465,0.155387253,0.976005912,0.359316319,0.003251879,0.630275607,314.0117114,305.9170698,351.3681632,right
0.005818702,0.230167359,0.927266538,0.518752098,-0.1687067,0.147386611,307.2355763,305.9492878,359.1146489,right
0.118071161,0.294021815,0.928485036,0.312585115,-0.153740495,0.100044556,297.8282372,306.0452758,7.315588516,right
0.082674064,0.311988443,0.956510127,0.112737641,-0.070376106,0.062627517,289.0448189,306.7251836,13.09670332,right
0.089462541,0.280910999,0.96284622,-0.036430046,-0.011650603,-0.003785075,280.5874054,308.8322457,16.47781259,right
0.087522976,0.258816898,0.948955536,-0.015994905,-0.013009727,0.003364917,272.7819472,310.8560342,19.47461102,right
0.07952226,0.046373382,0.926047981,0.206360042,-0.091200478,0.104463115,286.4328043,308.3204426,49.63712596,right
0.151528701,0.054628327,0.970157146,0.152909338,-0.041414961,-0.225404114,277.8661966,314.5167424,52.11574356,right
0.068612188,-0.148595139,1.008173943,-0.023936152,0.350149661,1.072073698,281.557504,314.2880232,46.34482793,right
0.083401397,0.055113915,0.936527014,0.181620002,0.337932378,1.67072165,300.9057497,308.0275709,30.54900461,right
0.077097803,0.124309801,0.971375644,0.256451011,0.175442189,1.545188785,319.008104,305.2420046,13.13911282,right
0.131648123,0.063854448,0.987215936,-0.370296776,0.467435807,1.769681811,334.8431702,309.3789409,356.896939,right
0.02545682,0.245463297,0.967232823,0.014941633,0.067525581,-0.100711361,327.1927231,311.2545586,0.790863495,right
-0.029867113,0.123095833,0.989165485,0.12731576,0.08905153,-0.077847712,315.1954173,313.2553328,7.460996413,right
-0.038753197,0.135235459,0.97040087,-0.070815533,-0.139556676,-0.075682141,304.9604061,314.5774901,11.16807305,right
-0.024436731,0.109742239,0.973325253,0.047298096,-0.044842824,-0.048681907,295.6089927,316.9532484,15.31951496,right
-0.049860798,0.029863488,0.939207673,0.014116997,-0.108833596,0.050656587,272.7813257,297.9404914,47.91243831,right
-0.069854483,0.045402214,1.046190619,0.208066717,0.126349509,0.099831238,268.0053159,303.1979714,49.35480009,right
-0.034556992,-0.154143348,0.973081529,-0.088813804,0.333738267,0.893039763,282.5432984,303.8673641,31.30501093,right
-0.095031723,0.055842295,0.951636195,0.131097689,0.225004256,1.652650714,307.602757,305.4298382,7.583010059,right
-0.114778578,0.284795702,0.985753715,-0.388443202,-0.096310869,0.907700539,318.4586494,305.1507635,349.6342078,right
-0.055538021,0.230895743,0.968451262,0.199820042,-0.199241653,0.445886374,319.5879393,303.249232,348.0029016,right
-0.03974054,0.22118403,0.949442923,0.032748386,-0.057826359,0.225058615,312.5411614,303.8667221,351.0419585,right
-0.014810139,0.197633162,1.000131965,0.051074341,-0.069432795,0.096166044,303.8876839,303.5364927,356.0392954,right
-0.018265838,0.127951682,0.966501713,0.013876101,0.020263515,-0.034053251,292.3001622,305.6784981,2.960526499,right
-0.007158234,0.197147578,0.955535352,-0.003980134,-0.006915852,-0.038689286,282.6447745,308.005161,8.698829035,right
-0.081208929,-0.049451306,1.022064567,0.112389691,0.074634656,0.38494575,352.742019,327.5256675,337.5312987,right
-0.042702567,0.025493219,1.025476336,0.023814237,0.176649153,1.061784506,353.8688478,332.6152666,334.7372135,right
-0.030113949,0.147617891,0.94237572,-0.354616791,0.362352192,1.760919809,1.752321744,343.2777793,328.0686471,right
-0.050601307,0.329712331,1.000131965,0.649034858,-0.010886479,0.344934076,358.3614403,341.539684,335.1990179,right
-0.006417727,0.385069013,0.928972363,0.244642034,-0.114733569,-0.032886066,349.8706971,337.3787618,340.6613354,right
-0.020734195,0.259788066,0.925804317,-0.14747633,0.055390812,-0.08043842,339.8595053,334.5537187,342.7182519,right
-0.000493671,0.200789452,0.998913348,0.014606763,-0.0583863,0.0320866,330.3771554,332.3913491,344.5805508,right
0.015274093,0.211472332,0.967720211,-0.057560414,-0.166660592,-0.105062075,320.2784475,329.7120521,347.2903686,right
-0.009379755,0.138391778,0.967476487,0.076739646,0.037079282,0.014092833,310.8284744,329.0808538,351.3604587,right
-0.004443042,0.199089915,0.96284622,-0.005538504,0.013194455,0.031560805,302.2233205,329.3041258,354.5739906,right
-0.031348128,0.036661681,0.978442848,0.017839804,0.010248814,0.019672841,309.069226,337.8789656,358.3755691,right
-0.029867113,0.045159418,0.990140319,0.070634872,0.023633102,0.042765416,301.3151854,338.4962713,0.484072262,right
-0.032335471,0.050258063,0.999157071,0.028576227,0.003890984,0.010163609,293.7812955,339.2166052,2.328929302,right
-0.027645594,0.041760322,0.992820978,0.038133591,0.006621251,0.009463694,286.597125,340.1809801,3.862009657,right
-0.030854454,0.059241388,1.004274726,0.099641129,0.013895005,0.023675073,280.2167789,341.1986988,5.959098433,right
-0.033569649,-0.019539297,1.024257898,0.120715976,0.081701048,0.285430849,275.256675,342.8566128,6.93438456,right
-0.050848145,0.007040984,0.980392396,0.142707124,0.21089904,1.087191463,283.1294584,345.6475357,5.206702296,right
-0.000493671,-0.030153235,0.955291629,-0.138290882,0.170276508,0.798863113,287.0354455,347.795316,5.576455868,right
0.054550331,0.452565342,0.989896595,1.027850866,-0.431120336,0.449753582,289.7085493,341.4173912,14.92733574,right
-0.012588618,0.310531706,0.907283366,0.519610941,-0.111026943,-0.02091809,282.6089912,340.6226901,24.85114469,right
-0.00740507,-0.013749876,0.993795693,-0.083618447,0.109189987,0.446699262,341.9822717,348.5516006,357.6819437,right
-0.027151922,0.039089605,1.014753699,0.239223838,0.035580721,0.514810741,337.5220506,349.2680644,0.240380931,right
-0.037272185,0.059726976,0.998913348,0.510142565,0.062458791,0.848954022,337.7423328,350.5709631,4.15821874,right
-0.010860768,0.222640797,0.973568916,0.066043541,0.284813762,0.824213982,338.7611494,352.8087406,3.64037258,right
-0.013822797,0.366616786,0.93896395,0.474101514,-0.011150468,0.242059395,335.1233053,351.4654327,8.49883512,right
-0.004443042,0.424158603,0.88437587,0.231588006,-0.140043035,0.207240075,330.1516908,349.0948781,13.91336257,right
0.008728053,0.387496948,0.957972288,-0.099031016,-0.024249382,-0.01340988,321.7099288,348.706996,13.29176242,right
-0.013329125,0.345493823,0.939451396,0.079046503,0.034448929,0.000597497,313.3103875,348.5788531,15.29301724,right
-0.002715192,0.359818608,0.928241313,-0.046726059,-0.014855925,-0.060114786,305.523627,348.4631702,15.53186042,right
-0.007651905,0.32509926,0.942132056,-0.014114894,-0.004605632,0.018745892,298.1899162,348.4600804,16.05858924,right
-0.056772202,0.064825617,0.993795693,-0.010497598,-0.050963182,-0.034231946,280.5829795,344.3265224,11.07034841,right
-0.064670943,0.069195889,0.99160248,0.078904919,0.066888213,0.047217652,274.8966489,345.9857308,12.34396525,right
-0.08145576,-0.056688085,0.999157071,0.175421625,0.123087808,0.667245865,276.249846,346.8599993,13.80668953,right
-0.016537989,0.080121547,0.960896671,0.048972525,0.164015785,0.792778671,281.0152348,347.4640945,13.54093199,right
-0.016537989,0.258816898,0.985753715,0.223374531,0.305125654,0.738106251,286.8536395,347.7517624,8.264308622,right
-0.050601307,0.399879366,0.883157432,0.391057074,0.106594443,0.569812834,290.4004816,348.5269428,13.96932316,right
-0.055538021,0.533172488,0.938720286,0.480548799,-0.048565324,0.209096938,287.5012712,348.7530844,19.03093389,right
-0.02665825,0.468832463,0.907039642,0.053633884,-0.0633066,-0.001283603,281.3201959,348.6618817,20.77945036,right
-0.041715223,0.314901978,0.907283366,-0.038647339,-0.023891278,0.040553778,275.8764054,349.0567298,20.59772464,right
-0.036284842,0.407648712,0.917274892,0.03332708,0.022806935,-0.023082815,270.6120849,349.9468247,22.27875202,right
0.02909351,0.028163938,0.999400795,0.091784023,-0.017870337,-0.121500537,236.4993061,11.60153905,39.94240327,right
0.018425889,0.001456755,0.995989025,0.093922056,0.22006169,0.541288257,239.4513959,10.23297832,40.00614259,right
-0.009626591,-0.021227879,0.948224485,0.287566334,0.249994069,1.172312021,246.6348424,4.971124803,42.3880208,right
0.013092079,0.206373692,1.009392381,0.158979207,0.225864887,1.014708877,254.9021102,359.1461077,42.59271815,right
-0.035297498,0.322185755,0.921661496,0.678520083,0.074675754,0.427972764,256.2073867,356.2408432,48.09146781,right
-0.060474731,0.383612245,0.849283516,0.59360981,-0.100642569,0.242575154,252.6810556,355.3473426,52.51110564,right
-0.010613933,0.538028359,0.849770904,0.103154302,-0.087239429,0.043604013,248.7876429,354.9646078,54.88940483,right
-0.009132919,0.440911323,0.861955762,-0.078702085,-0.015891176,0.017594239,245.6649965,355.9446887,52.90078842,right
-0.013575961,0.450380236,0.880476713,-0.084470496,0.01031824,0.03877382,242.5478894,356.7786595,50.50276365,right
-0.001234178,0.454264909,0.9082582,0.016304843,0.009280587,0.009524383,239.0736864,357.5671376,49.09241155,right
0.003394243,0.09226118,0.999157071,0.077895582,0.049448572,-0.057714395,254.7449886,5.397797756,65.66620366,right
-0.034310155,-0.128814623,1.00793016,0.062013086,0.043645352,0.247718215,250.7052732,7.345656716,63.69134326,right
0.025941715,-0.020745426,0.961384058,0.223892391,0.048837706,1.454177141,254.3657423,357.0034784,62.85709712,right
0.049458966,-0.012061295,0.961871505,0.316133022,0.081824429,1.81886363,261.0775096,341.6502733,60.48934374,right
0.043155372,0.136449426,0.934333682,-0.036030784,-0.128007784,1.413859963,265.7226325,328.2006234,55.97800038,right
0.098675489,0.258574098,1.00110662,0.059264194,-0.112430722,0.869273663,269.6289133,320.6890443,47.30394359,right
0.061581265,0.142276451,0.999157071,0.195181713,-0.039432321,0.092253022,267.3351514,320.7791891,51.0592294,right
0.061823711,0.085705779,0.995501637,-0.228758767,-0.036072563,-0.001514792,262.4530551,324.0608901,47.56368885,right
0.083158948,0.123581424,0.980392396,0.064175561,-0.00708371,-0.042539697,258.2126141,327.4073823,46.96266294,right
0.07467334,0.122853041,0.963333607,-0.275511354,0.044032283,-0.208491102,254.0786353,330.8263359,44.8222046,right
0.017213661,0.102701262,1.006468058,-0.006119793,-0.021941166,1.026678443,46.29875148,341.3942932,309.1072701,right
-0.00789874,0.16509895,0.919224501,-0.424867928,-0.013389051,1.079518318,60.89435347,358.906364,304.5591086,right
-0.011848111,0.162185445,0.914106905,-0.135623232,-0.02743895,0.881292462,73.31452655,13.12566588,306.4502275,right
0.020365456,0.069681473,1.030837655,0.477380037,-0.155720651,0.592047811,83.96462879,19.24732623,312.2709591,right
0.028123727,0.069924265,0.93628329,0.212264523,-0.093412399,0.402374148,94.85031791,23.74719317,320.5662546,right
0.050913639,0.166312903,1.008417487,0.463635564,0.025706325,0.293029279,103.0199072,26.41310992,328.1393737,right
0.015758984,0.241335824,0.956510127,0.117580421,0.139327258,0.126568496,110.6371595,28.99237718,334.9219718,right
0.012849634,0.212929085,0.986241162,0.166755065,-0.023162894,0.103050172,116.2461587,29.25441397,338.4753931,right
0.034184873,0.105614766,0.916543841,-0.128387466,-0.048221637,-0.077588931,120.6026856,27.42751254,341.0970604,right
0.061338816,0.220455661,0.971863031,-0.429238588,0.030274546,-0.487174094,120.3052718,26.16380118,336.5850358,right
0.123889863,0.011654044,0.980879843,0.050290626,0.24377194,0.906820416,252.6178901,12.36654927,64.3731464,right
0.07443089,-0.003377163,0.983560503,0.283030272,0.077616602,0.961798251,253.6017515,3.491066352,65.07094585,right
0.092856787,0.066282369,1.028400779,0.077168703,0.194902733,1.306020856,258.8995945,352.8357557,61.50134555,right
0.096735924,0.161942646,0.93628329,0.17093651,-0.16000998,0.802362442,262.3293126,343.9425446,61.98660317,right
0.076370463,0.115812063,1.017678142,0.384433925,-0.014318615,0.661863446,261.9833293,337.4576744,63.3915321,right
0.133345246,0.224340349,0.972594142,-0.069438964,-0.081208363,0.05313623,256.5810049,336.8362894,65.32205775,right
0.106433757,0.174325064,0.971619308,-0.3440229,0.10815987,-0.179908872,252.879336,340.6306132,60.49413854,right
0.146922231,0.210501164,0.938476563,-0.373344421,0.163443163,-0.585523367,249.1717045,346.3690538,55.64931802,right
0.090432331,0.089347668,1.000619292,-0.08745949,0.253240377,-1.173175693,241.2190761,357.2297299,54.12247362,right
0.066430181,0.052443195,0.999400795,0.193538517,0.174744174,-1.181727767,233.8977417,7.554199467,53.58587006,right
0.024002146,-0.038113695,0.934333682,-0.102731124,0.105716407,0.98501116,353.5401565,310.125122,351.6453818,right
0.066187732,0.048558515,1.026694775,0.147112757,0.106938139,0.850009918,356.9580229,312.0226373,346.364446,right
0.011637404,0.07162381,0.964795828,0.280586809,-0.025008757,0.773957193,357.4569016,312.5961307,345.5593443,right
0.070309311,0.151502565,0.990140319,0.367635131,-0.107781008,0.5827564,356.1786919,311.9466037,347.1952275,right
0.096978366,0.127466097,0.972594142,0.179794058,-0.063798696,0.718063056,356.2184043,312.1646711,344.8973282,right
0.114919364,0.180637673,0.967720211,0.324569106,-0.042723853,0.357957989,351.0969466,311.9251261,347.9688164,right
0.130678341,0.237451136,1.008173943,-0.045920651,-0.11022447,0.228759989,346.8709301,311.0093514,349.9179296,right
0.078310028,0.272170454,0.913132071,-0.133885249,0.046767909,0.038780898,336.8668921,309.6844006,357.2919532,right
0.104736634,0.267314643,0.98136723,-0.20505105,0.07334055,-0.098663792,323.9052609,310.5368424,1.046092777,right
0.145952448,0.267314643,0.932871521,-0.34555006,-0.022870731,-0.474345922,305.4170589,312.4539535,5.704661507,right
0.030790633,0.001699548,0.973081529,-0.119835347,0.181769118,0.670110106,32.08413402,14.06771887,323.2309095,right
0.055762563,0.051714819,1.021089792,0.025856014,0.287754238,0.699126244,44.17687808,21.9261435,327.4821421,right
0.003394243,0.003156303,0.985510051,0.155970305,0.074256845,0.91384536,62.98549102,28.74971422,336.0118087,right
0.00945539,0.133778706,0.949442923,0.201479763,0.143284619,0.977375329,83.7403527,33.11146961,348.5765411,right
0.038064007,0.300334424,1.068123221,-0.067911804,-0.033560868,1.06289649,107.526425,35.94461158,7.747714948,right
0.053580545,0.179909304,0.981123507,0.166660458,-0.074794278,0.634679914,121.5375745,31.38643361,15.88745885,right
0.070066869,0.213171884,0.998913348,0.43421942,-0.145960078,0.290457368,128.4131162,27.54201895,20.7940516,right
0.052368317,0.507922053,0.926779091,-0.435041815,0.092582799,-0.206786931,132.7433605,28.05951677,19.90432725,right
0.069339536,0.11362692,1.005493283,0.007952856,0.011489768,0.029476102,136.3916241,26.23300295,18.94829884,right
0.068369746,0.137906194,0.978930235,-0.050833896,-0.042922422,0.031262785,139.6635715,24.07263461,18.53453794,right
0.016728768,-0.03521898,0.995745361,0.103104144,0.11040476,0.274998009,181.6489802,10.79627597,55.07817077,right
0.035881996,0.071138225,0.97722435,0.116848618,0.166298926,0.919460833,188.7784,4.09805075,52.95277982,right
0.013576971,0.151745364,1.049358606,0.13273111,0.005641367,0.703214586,194.2249158,356.5375959,52.54757885,right
0.052368317,0.136449426,0.985022664,0.158387452,-0.051474534,0.776212931,200.0509852,349.9302589,50.94798953,right
0.050428752,0.163399413,0.959434509,-0.352295905,-0.156237915,0.9551965,206.1093357,343.3717132,47.71603964,right
0.049216524,0.098330997,1.02230823,0.112267122,0.084137551,0.898080587,212.0789483,338.298457,43.34593776,right
0.086310744,0.246191666,0.948224485,0.222222865,-0.162652001,0.293323964,213.5182604,335.4498464,44.22765371,right
0.116374038,0.288194805,0.974299967,0.017736344,0.015933529,0.005598744,212.4115649,336.5228793,42.96955335,right
0.108858213,0.206859276,0.962115169,-0.005534733,-0.001082458,-0.003006712,211.396025,337.7794514,41.39172501,right
0.10716109,0.21001558,0.954316854,0.032805596,0.011980226,0.002504036,210.7672651,339.211445,40.44163204,right
0.039276235,0.032777,0.963089943,-0.036222175,0.240443826,0.645745158,314.5979636,352.8956291,353.3318178,right
0.067399964,0.130622417,0.97381264,0.138485283,0.045272384,0.772194266,316.0099549,354.4103345,354.2392716,right
0.040246025,0.151259765,0.992333591,0.21881406,0.131404385,0.617034495,315.6114168,354.6230292,356.2943304,right
0.057459682,0.177966952,0.959921837,0.031583864,0.146676004,0.585880339,315.3335852,355.8661078,357.2262837,right
0.05406544,0.106828734,0.999157071,-0.118383549,0.140261918,0.909333527,317.2183691,356.6291926,356.8424994,right
0.086068295,0.111927383,1.000375509,0.116494134,0.08436776,0.892229259,321.332653,356.5545143,356.8341347,right
0.122920074,0.274112821,0.955047965,0.495841444,-0.338045567,0.163772464,316.0746744,354.0043805,1.632538155,right
0.116374038,0.166312903,1.036930084,-0.129607081,0.083850712,0.084743962,308.3638826,353.3633481,359.0519535,right
0.091886997,0.158300757,0.973081529,-0.02516997,-0.01455589,0.024040131,301.6474673,352.5177856,358.9674083,right
0.101827279,0.195448026,0.967963934,0.004195482,0.009849936,0.010599966,295.0888533,352.0972073,359.5923484,right
0.019153228,0.00752657,0.997207463,0.071390659,0.063606076,0.798005283,45.85471405,1.988897299,355.2619481,right
0.029820848,0.073323362,0.974299967,0.094603539,-0.006948858,0.708208084,62.81830848,3.214980928,357.4108736,right
0.029578403,0.086676955,1.007442713,0.232353628,-0.007559724,0.666974664,76.34966454,3.605346516,0.223696032,right
0.059156805,0.109256655,0.978442848,-0.042841144,0.005268447,0.66666925,91.27138758,3.731199155,1.440616243,right
0.060611479,0.100273333,0.99769491,-0.507709563,-0.049098559,0.594587147,105.9369649,3.777583823,357.2245106,right
0.066430181,0.074294522,0.986241162,0.16363132,-0.034437798,0.447063178,116.7292033,3.525881534,358.9723205,right
0.05867191,0.12163908,0.987215936,0.397592694,-0.042684473,0.364290923,126.2512384,2.410884742,4.726166899,right
0.080249593,0.181123272,0.975762188,-0.013556885,0.012727577,0.006115399,130.5791058,2.305801854,5.666333046,right
0.06594529,0.138391778,0.985753715,-0.001383798,0.010234194,0.008925414,134.1740392,2.076773232,5.86891475,right
0.069581978,0.139362946,0.975031078,0.026987609,-0.001043253,0.006710806,137.5036608,1.917468674,6.400261632,right
-0.002468356,0.034476548,1.009636045,-0.024325073,-0.206904829,-0.264818788,90.10923772,319.1225609,359.5561031,right
0.015516539,-0.038596142,0.979173958,0.212996081,0.090586528,-0.018334668,95.19815895,321.739261,1.718108579,right
0.044125158,0.143490404,0.940913498,0.794234395,0.071649708,0.211961523,104.5554498,324.019868,7.660607838,right
0.043397821,0.08424902,1.060812354,0.173254624,0.039029587,0.094626784,109.576315,326.3897353,8.310222007,right
-0.004443042,0.043459874,0.93628329,-0.094915219,0.289789766,0.995042205,123.2793138,330.1538526,1.342633444,right
0.071036659,0.114112511,0.961384058,0.136602715,0.085455343,1.564368606,141.6804991,334.0582773,354.6979978,right
0.055277668,0.28600964,0.960652947,0.57031703,0.418376893,1.004205108,155.1152353,340.0822753,356.0180676,right
-0.004936713,0.383612245,0.891930461,-0.135537758,0.42937246,0.864622474,167.0881198,345.2790726,356.6007286,right
0.035881996,0.300819993,0.959921837,-0.433945417,0.179834023,0.764440536,176.9689173,353.4433249,348.700748,right
-0.022462046,0.398908198,0.930434585,-0.307190865,0.039640453,0.347525001,185.1844364,357.9163377,351.6011939,right
-0.017278496,0.1762674,0.990627706,0.151538789,0.006908901,-0.052696124,177.3328298,354.6936448,17.63503617,right
-0.014563303,0.163156614,0.978199124,0.010156486,0.015379855,0.021603003,177.8861571,355.0078621,17.35801224,right
-0.031594962,0.120910697,0.999400795,-0.000308938,0.019089082,0.176909894,179.3683491,354.9090024,17.77656794,right
-0.038012687,0.093232349,0.989652932,-0.062922627,0.176386878,0.69492358,187.2060222,354.5630802,16.89193037,right
-0.000740507,0.142519236,0.974543691,0.109952241,0.194407403,0.889789641,198.0754349,354.2882061,17.4082073,right
-0.006664563,0.194476858,0.94993031,-0.310933918,0.194101974,1.024180055,209.7928294,353.7351003,14.94396555,right
-0.041715223,0.232109711,0.925073266,-0.033906527,0.215482265,0.668961823,218.5768898,354.2607171,14.04152339,right
-0.063189924,0.188892633,0.985997438,-0.128590643,-0.000458606,0.395599663,222.3676994,353.7062919,15.69585155,right
-0.079234242,0.158300757,0.983073056,-0.106407762,-0.058466695,0.003463965,220.58864,353.5014477,14.62647957,right
-0.065905116,0.129165649,0.968694925,0.014848396,0.006495088,-0.001057676,218.6340311,354.266294,14.44756106,right
0.023032364,0.064097241,1.003056169,-0.093360595,0.068978071,0.089597307,228.3554667,1.632522574,4.053796246,right
-0.002468356,-0.032083042,0.977468073,0.066686101,0.162745878,0.729784131,232.4076813,2.886638367,5.013496308,right
0.031517968,0.062883273,0.992820978,0.078292541,0.21497485,1.149448514,242.7322772,3.657628626,7.083125162,right
0.02497193,0.188407034,0.989896595,0.058439419,0.114487529,0.970465004,251.0390918,2.943082836,8.096019591,right
0.05867191,0.141548067,0.974543691,-0.310523182,0.475508869,0.790565193,255.1762604,5.477770306,6.808869161,right
-0.021227866,0.101244502,0.968938649,-0.152003661,0.018276252,0.895023167,258.6333196,5.177034516,4.860941899,right
-0.072322845,0.005341437,1.013291478,0.510174274,-0.018681098,1.041019917,263.2035153,4.346658109,9.006000572,right
-0.016291153,0.264401108,0.969913483,0.261552125,-0.099926174,0.326307595,264.045261,3.09625986,11.8613825,right
-0.048132952,0.130865201,1.003787279,-0.103946477,0.03586169,-0.018672984,259.4181493,3.253523259,11.5394125,right
-0.028879769,0.120667912,0.950417697,0.087559775,-0.198710561,0.031112533,254.6602122,1.167235467,11.7887793,right
-0.013082289,0.09104722,0.971619308,0.086948909,0.049300727,0.224451378,294.8135761,7.481917283,12.98781474,right
-0.018019002,0,0.991846144,-0.34310022,0.181247622,0.812103748,296.1635562,7.67846366,11.69025211,right
0.018183446,0.099059373,0.981854618,-0.062713072,0.164143384,1.112649441,302.4107956,6.959389028,10.96221285,right
-0.016784824,0.135478258,0.974299967,0.075342469,0.151620656,1.002082825,305.3080286,6.454004976,12.66496706,right
-0.027398758,0.138148978,0.979661286,-0.42251271,0.168114007,0.707951248,308.0951351,6.053972322,8.283886506,right
-0.042702567,0.102701262,0.996232748,0.097333618,0.026393279,0.535687208,308.2453241,5.330388911,9.461824345,right
-0.011848111,0.203460172,0.988921821,0.151395202,0.141541377,0.583640158,309.8217045,6.145337201,12.67763365,right
-0.023696221,0.307375401,1.002568841,-0.222148895,-0.027973726,-0.13718085,301.9491909,5.093374944,11.51900475,right
-0.027892428,0.149074629,0.969913483,-0.002316777,0.022485336,-0.039036218,294.5913833,5.448453427,10.84378933,right
-0.034063317,0.157815173,0.983073056,-0.003248118,-0.017092615,-0.003171615,288.2176351,5.376459391,10.37235772,right
0.009697837,0.079393171,0.982829392,0.00967712,-0.032108184,-0.001014278,282.2915513,2.474960454,11.27274057,right
0.005818702,0.062883273,0.996963799,0.020737171,0.019773111,0.048484109,276.5760626,2.705994804,10.92207781,right
-0.000740507,0.04807293,0.989652932,-0.006440461,0.017220715,0.16659154,271.8638263,2.877237038,10.56206793,right
-0.061462075,0.05754184,0.985510051,0.051591739,0.054788928,0.340382695,268.9142365,2.986478657,10.39530801,right
0.003879135,0.068710297,0.974056304,0.040901594,0.01325009,0.353210866,266.6160691,2.844978908,11.08694662,right
-0.017772166,0.052685987,0.987703323,0.042123325,0.122289538,0.532805264,266.1672778,3.120489743,11.61609162,right
0.001454675,0.016752686,0.953829467,0.237294778,0.036157537,1.240492702,274.1270368,2.403915387,13.757011,right
0.043155372,0.174810648,1.035224199,0.014328957,0.328761995,1.414283872,285.6199434,1.364037763,10.69181847,right
0.002182013,0.332868636,0.958947122,-0.032402232,-0.03103764,0.239895359,286.1270987,0.720191955,11.44310171,right
-0.054303844,0.098330997,0.985266328,-0.009488709,0.064401895,-0.003931431,280.5522709,1.572573576,11.43360604,right
0.036851779,0.067981921,0.991846144,0.056040458,0.026544934,0.021046219,280.8098715,7.843878889,17.47183905,right
0.023274807,0.053899955,0.999400795,-0.010228939,0.005684868,0.082223333,275.4488765,8.193441141,16.98894638,right
0.010182728,0.02913511,0.953829467,-0.005342018,0.130912244,0.479285717,275.822686,8.682032746,16.88012781,right
0.015758984,0.043702662,1.014753699,0.121107087,-0.078309104,0.551978707,275.692926,6.04735771,17.67463761,right
0.002424459,-0.056929313,0.969669759,0.103697434,0.166036993,1.119167089,282.4982875,5.388510833,20.02185773,right
0.05891436,0.056570668,0.963333607,-0.197764561,0.073185474,1.58586812,294.6637901,1.108088803,17.26618205,right
0.071036659,0.25201869,1.017434359,0.078957394,-0.229192808,0.997910321,301.5039309,354.7881755,16.50901631,right
-0.002468356,0.11362692,1.032787204,0.032090813,0.011834477,-0.007445072,295.2161748,354.7744075,16.50036075,right
0.00121223,0.020151785,0.958947122,0.093157917,-0.004354712,0.012448709,288.4537001,356.0820571,16.2383564,right
0.000484892,0.058027428,0.99501425,0.01421342,-0.036752924,-0.020605471,282.2410011,356.7238891,15.70917554,right
0.072491325,0.097845405,0.979173958,0.043093301,0.008424295,-0.012426329,271.7411083,2.216463407,29.38380166,right
0.066187732,0.094203517,1.000862956,0.032436494,0.038601011,0.025656363,266.5988297,3.10414446,28.04124431,right
0.054792777,0.064097241,0.965039551,-0.016127296,0.062424757,0.266031832,264.7186903,3.672943618,25.89872325,right
0.053338103,0.022094125,0.974299967,0.078556821,-0.022485511,0.288328409,262.7323279,3.273442865,24.64062802,right
0.041700698,-0.04052595,1.00110662,0.364136308,0.30218938,1.255022645,267.0740128,0.53771454,27.30586175,right
0.163408548,0.136935011,0.94578743,-0.195721671,0.56211257,1.86436069,287.3580285,357.4960351,24.30967974,right
0.02497193,0.32509926,1.068610668,-0.032009792,-0.160846487,0.313679338,286.8821214,353.5144515,23.84366276,right
0.019395674,0.087648116,0.967476487,0.004542913,0.016553376,-0.013669903,281.9678686,354.5900607,23.96739164,right
0.006303594,0.106828734,0.993795693,-0.014760766,-0.021186046,0.001668343,276.0529931,355.0195409,22.90725749,right
0.015516539,0.10634315,0.98136723,-0.035245627,-0.016747219,-0.033569321,270.2840104,355.7432122,21.90313259,right
0.026426604,0.004370267,0.986484826,0.02706263,-0.012776593,0.238876581,298.8885763,332.2489653,52.11620118,right
0.030305739,0.093717933,0.986241162,0.100977324,0.039146952,0.427328497,296.1561045,332.6210552,50.56913943,right
-0.012835453,-0.096490361,0.980148733,0.17428115,0.340608954,1.151814699,300.3607348,329.379374,49.24392905,right
0.079037368,0.084006228,0.931409299,0.063714549,0.44140172,1.700371623,314.9658171,322.0388878,41.37354305,right
0.066430181,0.377785265,1.003787279,0.026451765,-0.170074403,0.815227926,320.4146722,315.9568946,33.65960595,right
-0.000493671,0.178209752,0.999157071,-0.051788513,-0.000162117,-0.012365699,311.7326309,318.1814906,36.06596014,right
-0.016291153,0.150045812,0.971619308,-0.038168952,0.015029239,-0.006415938,302.8635517,321.2345818,37.99794062,right
-0.008145576,0.138148978,0.999157071,-0.06033317,-0.007477807,-0.014095046,295.0383918,324.3796482,39.47619163,right
-0.005183549,0.110227831,0.976249576,-0.020150121,-0.028056648,-0.032265738,287.3935387,327.8189797,39.89110855,right
-0.006911398,0.119453952,0.976980627,0.000694688,-0.017130736,-0.010115205,281.087225,330.9087388,40.18721432,right
0.035397101,0.04224591,0.991115034,0.02006229,0.024225432,0.014478053,277.8924382,334.1957639,45.52912918,right
0.026426604,0.013839177,0.991846144,0.009750081,0.053924732,0.091704421,273.3604779,336.9216565,43.76621637,right
0.036609333,0.038604021,0.983073056,0.086108238,-0.02884751,0.274353147,270.6547189,337.5295673,42.5787914,right
-0.007158234,-0.04173208,1.010854602,0.306019723,0.079886504,0.629876673,269.7568906,337.4204755,41.56812148,right
0.070066869,0.069195889,0.966257989,0.180181488,0.08599516,1.334815264,278.0687049,331.5856429,36.65224992,right
0.048246738,0.133050323,0.988678098,-0.083712302,0.175792336,1.32107079,289.5929006,328.0217817,26.62047446,right
0.017698551,0.068953097,0.999400795,0.255623341,-0.077105857,0.976237297,294.8970889,324.3968945,20.72508035,right
0.047519401,0.119939536,1.039123416,-0.112662971,-0.062279094,-0.028009621,287.2394086,325.0713176,21.69386584,right
0.026911497,0.025007635,0.97722435,0.045054898,0.012004832,-0.040816616,279.7679057,327.7801091,23.3547527,right
0.018425889,0.067981921,1.016703248,0.061906755,-0.006486442,0.000809181,272.9232023,329.7492458,24.2907789,right
0.010425175,0.039817981,1.059593916,0.046752241,-0.004875928,-0.005210405,264.6581612,333.9740594,28.05819001,right
-0.034310155,-0.068508156,0.966745377,0.102340981,0.10019289,0.520744562,264.3796944,335.0638041,26.79442401,right
0.031760417,-0.056929313,0.981610894,0.046752241,-0.105668694,1.21865809,271.3045568,330.5339731,20.66215723,right
0.074915789,0.025493219,1.002812624,0.11425285,0.202512816,1.143216252,282.5687887,328.3830338,16.91318934,right
0.041458253,0.084006228,0.996476471,0.326833963,0.123405769,1.039063692,293.5910064,326.9903412,12.86024388,right
0.040973358,0.21559982,0.985997438,0.000631915,-0.118802294,0.230278149,293.5217347,326.3753612,11.8687369,right
0.024729483,0.1245526,1.039123416,-0.078246735,0.067113645,-0.042306654,286.3423179,327.8975747,13.36262051,right
0.018910781,0.057056256,0.967963934,-0.011556338,0.008082258,-0.048376258,279.3147977,329.9085429,14.94812855,right
0.026911497,0.099302165,0.997938573,0.018765351,-0.009850806,-0.006491507,272.740488,331.5697525,16.24696927,right
0.036851779,0.107071526,0.988921821,0.020021971,-0.00040313,-0.018722296,266.8043842,333.3470309,17.24078399,right
0.023032364,0.03034907,0.993552089,0.029617788,0.07259313,0.057958212,281.7432237,339.6314436,21.44364528,right
0.012849634,0.023550879,0.988678098,0.020760244,-0.000710702,0.203038707,277.7435947,340.574971,20.83950138,right
0.017940998,-0.027982203,0.976249576,0.245864093,0.214313865,1.050003409,283.9634723,341.6598936,19.53379461,right
0.052610762,0.068467505,0.978199124,-0.1902937,0.131847054,1.355130672,294.752603,338.7989152,12.59414568,right
0.070309311,0.140819684,0.999888182,0.099561863,0.10741245,1.197221994,305.0306137,336.7539071,8.915237603,right
0.025941715,0.405949175,0.994526803,0.136519209,0.105579853,-0.353459537,298.2711682,338.7477076,11.98293169,right
0.046307173,0.321457356,1.003056169,-0.064455457,-0.250554591,-0.783508658,280.1081447,338.0148829,15.35303582,right
0.043397821,0.086676955,0.90557754,-0.134999707,-0.043745898,0.073479101,273.536526,339.0951935,14.84620163,right
0.018668335,0.151988149,0.921174109,-0.031688955,0.020916371,0.085769869,269.9035962,340.6601776,13.86267915,right
0.033942427,0.181123272,0.968938649,-0.352087796,0.061844341,0.148078114,266.8412194,341.7601608,10.70318305,right
0.038306456,-0.088047452,0.976493299,0.313144475,0.406372339,1.319106817,37.53094351,338.4136669,20.45619288,right
0.057459682,0.125766546,0.999644458,-0.033521548,0.114684179,1.237861753,66.63854939,334.0927629,11.41005384,right
0.040973358,0.094931901,1.017678142,0.484797627,0.05695742,1.192046881,91.39157159,331.5644437,5.154731387,right
0.080249593,0.310774505,0.992820978,0.004352095,0.038631462,0.225047141,104.4835894,333.1283675,1.673411288,right
0.059156805,0.113141336,0.992820978,-0.037940852,0.054470994,0.023870718,111.0888741,335.6290757,0.482802434,right
0.047034506,0.132807538,0.989652932,0.005378917,-0.022672471,-0.007674264,115.8085485,336.8172964,0.195057383,right
0.050186306,0.122124664,0.978442848,0.015937608,-0.006103678,-0.018021164,119.5604397,337.9701469,0.25325421,right
0.048246738,0.1177544,0.986728549,0.00793362,-0.016446844,-0.009895789,123.1653725,338.9450847,0.191139549,right
0.048731629,0.078664787,0.992089868,0.016069164,0.005720254,-0.008959513,126.5669434,340.2899438,0.252195637,right
0.049943861,0.091290005,0.984535277,0.011164175,-0.02053415,-0.018540051,129.6346135,341.2139421,0.207346761,right
0.119283393,0.078422002,0.974299967,0.003516745,-0.017268164,0.015012412,132.3083594,339.2724676,359.5604238,right
0.035154656,0.04151753,1.000862956,0.118970275,0.549920261,-0.097692221,135.6336097,343.7092117,0.278984866,right
0.052125871,0.055599499,0.962358892,0.040474091,0.045650959,0.643287361,145.6779766,345.2851463,359.0536939,right
0.075158238,0.123824216,1.021577239,0.211821795,0.105210319,0.737360597,156.7632507,346.2287685,1.621866305,right
0.061823711,0.235994384,0.914594233,-0.169663548,0.304352373,0.770958185,168.0343878,351.0513696,358.8729728,right
0.026911497,0.145432755,0.983316779,-0.041687284,0.263118982,0.750188768,176.6457401,353.703836,358.6797846,right
0.062066156,0.242064193,0.9491992,0.233507514,0.137280747,0.699792385,186.3269631,356.2513015,1.378183298,right
-0.002715192,0.217784941,1.027182221,0.012827411,0.059593521,0.092047289,188.4600859,357.0741211,2.207875938,right
-0.002221521,0.175296232,0.976736963,-0.037480105,-0.033719108,-0.019655898,188.7092512,356.8775368,2.060465942,right
0.012122296,0.1177544,0.957484901,0.358360559,-0.343122363,-0.218187094,187.1937141,354.7702232,4.074679977,right
0.003394243,0.020637369,1.040341854,0.040399529,0.00538142,0.110441141,202.3370222,332.8773239,3.102868068,right
0.040246025,0.125280961,0.965526879,0.029709384,-0.067006111,0.206957862,204.1378016,334.2161844,2.213626957,right
0.027638834,0.099302165,1.015484691,0.052907228,0.060047165,0.028577585,203.0539052,335.5045528,3.358592485,right
0.020607902,0.113869719,0.985510051,-0.046343967,-0.016616315,-0.014791913,201.4071602,336.9332593,2.941516802,right
0.021092795,0.031805828,0.980879843,-0.086043388,-0.007151769,0.157766312,200.5906521,338.8497694,2.229816427,right
0.028851066,0.141062483,0.904358983,-0.129414812,0.132125512,0.797036827,210.6372593,342.9733766,359.1048203,right
-0.005924055,0.119453952,1.052770376,0.123156384,0.039882183,-0.006867672,210.4143629,343.2029597,0.630399727,right
0.000727338,-0.105415717,0.988678098,0.216618776,0.1186838,0.640649498,213.761101,346.7220397,4.093256384,right
0.137951732,0.360304177,0.940913498,-0.491068631,-0.017539151,0.661113441,222.880592,348.8256739,354.8744429,right
-0.027645594,-0.018574392,1.084694624,0.188203633,0.102797106,0.257626295,221.9430665,349.8626674,356.5486213,right
0.028366171,0.090804428,0.985022664,0.034870662,-0.026091229,0.06519945,216.3037208,346.3102228,5.028547057,right
0.006303594,0.052443195,1.007686496,0.058067434,0.073770285,0.067935452,214.669038,347.580282,5.897324068,right
-0.015056974,-0.098420165,0.917031288,0.663129508,0.204495445,1.252097726,224.9697966,348.6116269,11.45305159,right
0.033942427,0.267314643,0.944081604,-0.074184887,0.289711148,1.325706959,242.5705247,349.2544732,7.457378121,right
0.105948865,0.342337549,0.936039627,-0.075406618,0.07438115,0.833960474,253.1148751,350.5452526,4.704283399,right
0.019638117,0.238665104,0.987215936,0.095320307,0.054214958,0.025781605,251.7310037,351.7351339,7.069740553,right
-0.005183549,0.290865511,0.930678308,0.050107293,-0.047789969,0.138160571,249.1711717,350.9834357,8.527859155,right
-0.011848111,0.309560537,0.976493299,-0.033569831,0.027035365,-0.012118802,246.4979381,351.2133646,8.783625834,right
0.003151797,0.256874561,0.966745377,-0.066850901,-0.021218961,-0.027692109,242.6503559,351.2550527,8.699322517,right
0.008243161,0.244249329,0.970644593,-0.054628111,-0.006555388,-0.042043414,239.126634,351.3556827,9.199493854,right
-0.023696221,0.225311503,0.959678233,-0.090651214,-0.013273353,0.039801519,245.2491473,350.5500286,357.8778641,right
-0.028879769,0.118725568,0.981123507,0.092608362,0.069498889,0.630508184,247.3262898,351.6590652,358.8929421,right
0.000242446,0.189621001,0.980148733,0.277700543,0.316593856,1.012909889,255.0188382,355.3768247,0.96301281,right
0.029820848,0.297663689,0.954073131,-0.148988843,0.104318209,0.492147207,262.9509144,356.0296209,358.2418446,right
0.000242446,0.217299342,0.979417682,-0.025594063,0.135777757,0.582860708,265.1387743,357.414618,358.1127148,right
-0.030854454,0.211472332,0.955779076,0.235245392,0.352940351,0.654637396,268.3089929,0.497284302,1.577274988,right
-0.030113949,0.29693532,0.981123507,0.448742807,0.085992247,0.513222098,268.739691,1.282027788,5.578748677,right
-0.023696221,0.33602491,0.93628329,0.163774163,0.004747171,0.257574975,267.9480721,1.060651538,8.435451818,right
-0.029620279,0.322671324,0.942863107,-0.052451693,-0.049302153,-0.037458614,262.6388977,0.211569432,7.812273042,right
-0.021968372,0.295235783,0.933115244,-0.014887594,-0.020897217,-0.01943738,257.9399325,359.9457901,8.796519524,right
-0.004936713,0.113384128,0.986728549,0.038859475,0.011781117,0.055691689,256.9786448,0.933004908,25.30068725,right
-0.018265838,0.07817921,0.981123507,0.08986672,0.082030617,0.297288895,255.0807402,1.164991216,25.06716821,right
0.017698551,0.186464697,0.974056304,0.112163305,0.067064419,0.43778792,256.0149529,0.230761116,25.9155443,right
-0.009132919,0.181608856,0.996963799,0.088950425,0.166635469,0.476272434,256.1482236,0.226064481,25.79880612,right
-0.013082289,0.156358421,0.913619518,-0.038109548,0.184045121,0.598445475,258.7961923,0.261410176,25.37011271,right
-0.067632966,0.160728678,1.01207304,-0.115383998,0.150447533,0.515367806,262.4382199,358.2635351,22.5038853,right
-0.03579117,0.146646723,0.93896395,-0.119965486,-0.053886898,0.669000387,265.2823107,356.8391406,19.62081293,right
-0.037025347,0.10245847,1.021820903,-0.035360653,-0.038004406,0.593863964,267.0564182,355.9031561,17.87974136,right
-0.008639248,0.109985039,0.951879859,0.269155681,-0.055108629,0.663808048,269.4162007,354.1584116,19.44082891,right
-0.01875951,0.469075233,0.981610894,0.083758071,-0.228594348,-0.099162653,264.6717942,351.6889772,22.32630038,right
-0.062449418,0.050015271,0.944812715,0.300004363,0.075005673,-0.3404544,257.7386195,41.69265632,110.1591556,right
-0.061708909,-0.028705882,1.06056869,-0.163336918,0.066453554,0.181835353,251.3834631,42.71035792,101.6916266,right
-0.002962028,0.080121547,0.990627706,0.297255486,0.003534436,0.165036559,245.7732345,43.09073798,98.21524476,right
-0.005183549,0.096145861,0.868535578,-0.262602508,0.247880533,0.190387473,243.2402247,41.3608389,93.26001081,right
-0.08441779,0.216085404,0.86658597,0.048022456,-0.357181489,-0.591214597,235.1763668,46.60985293,84.5045006,right
-0.00394937,-0.066578344,1.195333123,0.146371752,-0.199883685,0.611273646,225.6661617,43.18142582,76.16378777,right
0.003151797,0.150774181,0.998182297,0.194324672,0.257654369,1.066062808,227.3878338,31.14825809,74.94824633,right
-0.073803857,0.239636272,0.955291629,-0.041774739,0.067980722,0.6549505,227.5702408,23.60813222,72.9863906,right
-0.069113985,0.133535907,1.014510036,-0.042691037,0.029801643,0.581646681,226.5932369,19.36935781,69.46709465,right
-0.033569649,0.131350785,0.992820978,-0.141651213,0.089361005,0.979625404,229.6652238,9.452156212,64.84423821,right
0.000484892,0.000728378,0.974787354,0.079780132,0.067364089,0.077069528,237.5661407,13.47325165,82.23368127,right
0.00945539,0.025736013,1.000862956,0.05351292,0.069502115,0.401438951,235.2780137,11.84435911,78.4777739,right
0.02545682,0.088619292,0.950905144,0.084972486,0.026436118,0.440839767,233.3868163,9.052111179,75.2661848,right
0.020850349,0.124309801,1.004762053,0.069694988,-0.026401507,0.150055319,230.3002674,8.347075147,72.10095903,right
0.004848918,0.077693626,1.011585593,0.077319041,0.081403248,0.107583635,228.2741055,8.897429592,68.9509919,right
-0.024930399,-0.055481959,0.984535277,0.230951652,0.292457163,0.761820316,230.2757607,5.969313408,69.35158249,right
-0.013575961,0.17942372,0.95334208,-0.223837525,0.235035866,1.354970455,237.0414456,353.9377094,64.5555466,right
0.001454675,0.235751584,1.025720119,-0.061347365,0.115917131,1.015329361,240.2829851,345.8237426,59.8806646,right
-0.055538021,0.244492114,0.992333591,0.139016435,-0.196845874,-0.004204708,236.0372029,343.9553836,61.119497,right
0.014546755,0.137906194,0.961627781,-0.006372069,-0.074055158,-0.067113549,233.6510216,346.2121276,59.71226629,right
0.0237597,0.023793673,0.990384042,0.080065362,0.084158942,0.362935573,288.0020471,304.8488521,42.97641769,right
0.031033078,0.031563032,0.978930235,0.039748259,0.178537622,0.87209177,294.5934323,304.2754748,33.38458155,right
0.015274093,0.110956207,0.973081529,0.084341422,0.150132388,0.893166602,298.8648072,304.3603877,26.40918085,right
0.029335955,0.059726976,0.937501729,-0.232086778,0.168458343,1.071844697,306.9247105,304.9818393,14.20347742,right
-0.016784824,0.100758918,0.987215936,0.133821517,0.159600794,0.788708627,313.1853438,307.0666384,6.332604339,right
-0.042702567,0.163156614,0.959921837,0.377251327,0.196558148,0.67203337,314.9392169,309.9469838,5.456619772,right
-0.034063317,0.214871436,0.969913483,0.21567744,0.076523125,0.826276898,312.9596129,310.9177791,4.700162234,right
-0.024436731,0.314416379,0.949686646,0.060517676,-0.069779105,0.160433754,307.8296901,311.7645245,6.996541415,right
-0.043936744,0.183065593,0.988678098,-0.087908037,-0.017241102,-0.057940472,297.4314715,313.2376289,11.54902173,right
-0.047886115,0.142276451,0.981854618,0.019295285,0.008720759,-0.029222567,288.1018771,315.4734606,15.57162919,right
0.012364741,0.095174693,0.987703323,0.019903498,-0.00227551,-0.015171115,282.0156595,321.0406898,20.06416905,right
-0.000987343,0.09104722,0.997207463,0.058681726,0.021238424,0.020868856,274.7187635,323.6434939,22.04133123,right
0.000727338,0.089347668,0.980148733,0.031490028,0.000773961,0.005292126,268.1081171,326.1593735,23.57490677,right
-0.006417727,0.049044099,0.993552089,0.020794928,0.038339745,0.166857019,263.1421324,328.54633,24.22383109,right
-0.006664563,-0.005789421,0.966257989,0.186033979,0.203273356,0.814679623,267.3843561,329.7066152,22.26339434,right
0.003394243,0.083520643,0.96357733,0.076078236,0.313534528,1.535195112,279.287477,329.6164226,14.56332593,right
0.008243161,0.200546667,0.981610894,-0.097102061,0.227707982,1.259084105,293.5551616,330.9876138,3.834912162,right
-0.056031693,0.39235279,0.970644593,0.064777225,-0.19195646,0.135397449,290.8210096,329.3039107,3.761289553,right
-0.03579117,0.1403341,0.989896595,0.094392091,0.023369005,0.003449935,283.8902527,330.590288,6.694588144,right
-0.024436731,0.129894033,0.973081529,0.038181715,-0.075269729,-0.001436677,277.3384279,331.46042,9.2022191,right
-0.00789874,0.00946891,0.9669891,0.16646342,0.029188225,0.611261189,19.03857516,338.3125067,347.8794366,right
-0.000987343,0.04224591,0.99501425,0.183567643,0.042932693,0.752065599,35.46659055,341.7103722,345.9564856,right
0.018183446,0.055842295,0.983073056,0.215638071,0.016360056,1.022678852,52.27582611,345.7752115,344.5641259,right
0.034669768,0.10634315,0.984535277,-0.072079465,0.091496482,1.141797543,69.29351222,351.4454843,342.7802701,right
0.032002863,0.150288597,0.993552089,0.00519499,0.127537534,1.051084042,86.00859705,357.5438896,342.4606565,right
-0.00394937,0.234537616,0.963821054,-0.077882685,0.164800301,0.676929176,99.6473715,3.829232006,344.8142287,right
-0.027645594,0.187193081,1.001593947,-0.048553452,-0.016929487,-0.029531386,104.9231667,4.746894815,345.1626862,right
-0.025670907,0.068467505,0.965283275,-0.025648344,-0.018450676,-0.101902813,108.8009383,4.153671541,346.7059751,right
-0.009132919,0.120910697,0.979417682,0.046112716,-0.043782197,-0.02767735,113.450733,3.299249241,348.7124772,right
-0.017031658,0.12625213,0.985266328,-0.018940862,-0.023620205,-0.031031236,117.6171689,3.742822429,349.7225648,right
-0.04541776,-0.079845771,1.000619292,0.252283305,0.121460289,0.459493577,179.7600195,355.0082792,42.7101496,right
-0.002468356,-0.005548195,0.906308532,0.324365407,0.130623266,1.339444876,191.4906818,346.0975273,42.57357996,right
0.049458966,0.174082264,1.027425885,-0.139281318,0.229888886,1.299738646,207.838562,336.4914468,31.72988285,right
0.001939567,0.226768255,0.97040087,0.326197982,0.047240164,0.591745853,213.757317,335.1458142,29.74782342,right
-0.014316468,0.200789452,0.977468073,0.036935549,-0.01476068,-0.079900585,213.6914057,336.2520282,29.87462247,right
-0.010120261,0.075994074,0.990871429,-0.011320722,-0.012008255,-0.030720335,212.0625012,337.903194,29.48410299,right
-0.012094947,0.152716532,0.999400795,-0.100183085,0.047230069,-0.132706732,210.3108855,340.9236317,28.11035045,right
-0.016784824,0.089347668,0.986972272,-0.138667583,-0.052951835,-0.296724051,206.5798401,343.1782123,26.35578243,right
-0.027645594,0.101487294,0.988678098,-0.014051081,-0.004388044,-0.519384444,201.6781958,346.3255259,27.52365086,right
-0.016044317,0.087405324,0.99842602,-0.076664768,-0.091436341,-0.666602969,194.0027571,348.9803922,26.58951834,right
-0.01530381,0.009711703,0.998182297,-0.007942428,0.072275542,0.441506594,274.8643489,340.0850381,6.845344506,right
-0.030854454,-0.005789421,0.995745361,0.119117536,0.241179779,0.7872563,278.8254693,342.6886089,6.242246059,right
-0.074050695,0.000728378,0.971131921,-0.102321111,0.042037714,0.727696955,282.8282607,344.4986313,3.505051165,right
-0.062202584,0.035933301,0.983316779,-0.357662797,0.093044959,0.888965368,287.8750943,346.0106738,359.0878056,right
-0.070841834,0.05681346,1.008417487,0.110565431,-0.023935733,0.495568186,288.4277249,345.8731923,358.9653274,right
-0.011848111,0.035447713,0.956510127,0.349108309,-0.118619844,0.552073181,289.0842769,344.9005879,3.544901903,right
-0.041962057,0.04151753,0.996720076,-0.228755042,-0.035233162,-0.053290825,282.6859606,344.8979617,3.111320854,right
-0.032582305,0.088862084,0.979173958,-0.368643194,0.183151156,-0.638805151,271.3550114,347.3988841,3.066785887,right
-0.021721536,-0.006513099,0.994770527,0.319191068,-0.039814651,-1.041976333,253.658647,348.5024728,9.542017596,right
-0.002221521,0.031805828,0.999400795,0.178692073,0.041430425,-1.151626587,239.7965526,351.9063232,14.53657379,right
-0.004689877,-0.037390016,0.990871429,-0.057712778,-0.007133363,0.309868574,282.3845238,344.477193,1.934549056,right
0.000727338,0.036904473,0.97722435,0.065071136,0.148026407,0.681885481,284.5382054,346.805257,1.664265558,right
-0.009132919,0.035690509,1.012804031,-0.044273742,0.226522595,0.993121326,290.5626645,349.0408992,0.150586701,right
-0.014563303,0.06021256,0.968938649,-0.12002103,0.148026407,1.077420712,297.4154957,351.6154638,356.071425,right
-0.078246906,0.087890908,1.000375509,0.333851844,0.1095419,0.78298372,300.1155993,353.1497527,358.7896735,right
-0.068126634,0.18209444,0.953829467,0.328048617,0.083274692,0.535888731,302.5148672,354.5047367,2.367787956,right
-0.054550678,0.190106586,1.008904934,-0.448361099,-0.015380042,-0.311075956,293.4781034,353.9895539,359.2431579,right
-0.050107639,0.081821099,1.017190695,0.063849404,0.065559603,-0.777777016,276.8443456,354.0509586,0.218102788,right
-0.047392443,0.072837777,0.982342005,0.088589445,-0.086240411,-0.783580244,262.4602541,353.7822897,3.515760047,right
0.002182013,0.055599499,0.960652947,0.293229312,-0.001635574,-1.11894536,245.1159996,355.6890369,6.152589581,right
-0.005924055,-0.116029657,0.958216012,0.172583431,0.185900047,1.205091476,14.97058962,352.1518138,20.49763676,right
-0.010367097,0.008740533,0.992820978,-0.065959454,0.042957589,1.079253316,37.45904894,347.5303601,16.66675953,right
0.006303594,0.066282369,0.961140394,0.203737557,-0.113729343,1.046877384,58.24857041,342.5871857,14.1451698,right
-0.015550646,0.145189956,0.963333607,0.104166515,-0.105788097,0.690437615,76.03908218,339.4175118,11.32119479,right
-0.002221521,0.213414669,1.003543615,-0.067486621,-0.055391714,0.220071375,87.83046805,338.8024208,8.386185664,right
-0.011601276,0.108528279,0.983073056,0.006731631,0.031344853,-0.087796532,93.64395624,340.2265392,6.824436443,right
-0.01530381,0.076479658,0.968451262,-0.027169572,-0.02026961,-0.023651022,98.96697538,340.9988338,5.96198248,right
-0.002468356,0.108528279,0.982098341,-0.032357283,-0.009579236,-0.039219532,103.9681628,342.0218629,5.101325284,right
0.001697121,0.087405324,0.968451262,0.021704003,-0.023013627,-0.027605925,108.5247801,342.825783,4.247957607,right
-0.02270888,0.123581424,0.997451186,0.002767818,0.001728026,-0.019355452,112.842935,343.6640436,3.596074107,right
0.059399247,0.025978805,1.000131965,0.058347084,-0.010181392,-0.007746683,109.8130494,337.3730979,12.31851767,right
0.056005009,0.049044099,0.982342005,0.029632304,0.017304875,0.011798492,114.2798155,338.1072834,11.1234796,right
0.055520114,0.01796665,0.999157071,0.016187368,0.013637426,-0.032479253,117.7389785,339.0430467,10.58075447,right
0.041943144,0.01796665,0.998913348,-0.054359406,0.089680031,0.158087492,122.9975821,339.9623833,8.461263957,right
0,-0.001447355,0.947249651,0.014359081,-0.003473639,0.066150039,125.6570665,340.5549978,8.152006652,right
-0.026164578,0.005584229,1.012804031,0.105988868,0.085712686,0.293697357,131.9607984,341.5077034,6.953501832,right
-0.036284842,-0.194669306,0.977711737,0.013442783,-0.081053525,0.947017729,143.6723325,341.4219299,3.579248577,right
0.092129454,0.110713415,1.000131965,-0.032066677,0.210634634,1.639738917,169.1152653,345.2803618,358.9987466,right
0.049701411,0.174567848,0.982342005,0.303909212,0.137636229,1.368209362,187.0178641,348.479864,0.479354255,right
-0.014316468,0.340880781,0.999157071,0.070247352,-0.096317068,0.017279366,189.1307831,348.3348463,2.99440189,right
-0.019993687,-0.006271873,0.983316779,-0.006110807,0.02860488,0.228638753,226.5356447,357.9677579,356.3628436,right
-0.064424105,-0.077915959,1.003787279,0.037260626,0.325485379,0.583856881,228.9093404,1.912535357,356.6788589,right
-0.032582305,0.041274738,0.977468073,0.107204691,-0.01568285,0.922887087,236.2647848,3.451630334,358.33865,right
-0.025917742,0.181123272,0.950661421,-0.130421877,0.024328824,0.696256101,243.8844892,3.622124022,357.6019436,right
-0.121689975,-0.07164409,1.046190619,0.082770079,0.312351793,1.400278211,257.0379582,5.390331505,3.477302667,right
0.002424459,0.221912414,0.897048116,0.276414394,0.027994014,0.885013461,264.8265868,5.066919914,7.377339403,right
-0.053069666,0.208316028,1.012804031,-0.091923594,-0.090802729,-0.106405474,260.3215375,3.407652027,7.550453962,right
-0.050107639,0.132079154,0.944812715,-0.133145809,-0.0733869,-0.132661536,254.308157,3.016147504,6.486205902,right
-0.052822832,0.115326472,0.986241162,0.037888091,0.014575139,-0.027582966,249.8021582,3.272658247,6.969252248,right
-0.087873489,0.109256655,1.027913332,-0.087327763,0.001141764,-0.037655964,245.0539951,2.400481083,6.668279109,right
0.060853925,0.031563032,0.999400795,-0.0586171,0.09613131,0.255253911,277.9413492,31.67177843,16.09004738,right
0.051398534,0.018695027,1.030593991,0.185118124,0.013969935,0.999287784,281.1039521,28.27509803,19.03056847,right
0.083643839,0.168255255,0.91166991,0.134416312,0.27480939,1.806240797,295.7410475,23.56292149,28.78782326,right
0.063520834,0.127223313,1.002081394,0.177787751,0.282445192,0.928732872,303.6056313,21.04937944,33.6617677,right
0.00654604,0.28018263,0.935795903,0.538503647,0.147138566,0.591229856,306.090782,19.6021648,42.6840651,right
-0.032582305,0.267557412,0.999157071,-0.18598251,-0.12561278,-0.064839467,298.0267977,19.54113194,38.65491602,right
-0.015056974,0.231381327,0.947980762,-0.128541842,-0.026649641,-0.158893183,290.2496437,20.50711194,34.98724446,right
-0.027645594,0.247891217,0.976980627,0.075783208,-0.039165333,-0.029994406,282.7978117,20.69773056,32.93817063,right
-0.019746851,0.193991259,0.978199124,0.022324406,-0.003735106,-0.012277398,276.5217968,20.87505423,31.41156871,right
-0.014810139,0.187678665,0.960652947,-0.024405459,-0.011066319,-0.048002657,270.2793317,21.1055475,29.35944179,right
0.050186306,0.060455348,0.999400795,0.162188932,-0.018701402,-0.000965409,269.2523513,29.87899037,51.53501697,right
0.038306456,0.092018381,1.013291478,0.077278063,-0.003427625,-0.034554902,262.4783268,30.56585469,46.88685126,right
0.027881281,0.038604021,1.013291478,0.008553896,-0.003120076,0.181052238,257.2748565,29.60461143,43.82252787,right
0.035397101,-0.005789421,0.910938859,0.386984915,0.232673913,0.960821688,261.2591858,24.60064238,48.91797535,right
0.124132313,0.200789452,1.068610668,0.140500784,0.261384577,1.215247035,269.666534,15.1733455,52.45672367,right
-0.008145576,0.139120147,0.950661421,-0.059863012,0.228397846,0.764123082,273.1901944,9.80325611,51.49806564,right
-0.030854454,0.153202116,0.968207598,0.143555105,0.377448976,1.09582293,277.2278471,6.107532958,51.60443559,right
-0.051588651,0.286980808,0.892661572,0.087660946,0.090647742,0.719224513,279.5253998,3.193244918,51.23671529,right
-0.079974748,0.24060744,1.042047739,-0.062599353,0.023761598,-0.010145553,273.5248874,4.509161116,48.37770055,right
-0.047145609,0.189621001,0.955535352,-0.052510869,-0.088014744,-0.089543521,267.4676229,6.361944271,45.83898071,right
0.017213661,0.019666197,0.993308365,0.066291355,0.045148034,0.002086709,262.0041273,10.03637388,55.46631334,right
0.028608618,0.039817981,0.994039416,0.058645885,-0.01776517,0.012160789,257.1399944,11.40201215,52.60141099,right
0.0237597,0.017238274,0.982585669,0.013137706,0.028349034,0.111708663,252.9721105,12.41181891,49.46872082,right
-0.006417727,-0.012061295,0.992089868,0.197008148,0.086075798,0.459290981,251.6174176,11.24780611,48.01479211,right
0.019395674,0.04418825,0.964064717,0.257789254,0.064084649,0.592154145,252.9331716,8.315671645,48.49180911,right
0.029335955,-0.004824518,0.960409284,-0.179590285,0.216495529,1.323359847,261.1646902,0.367157619,46.85087323,right
0.050428752,0.1762674,0.969426036,0.288637936,0.359438002,1.009069681,271.4727161,352.8814283,43.72558699,right
-0.062943093,0.301062793,0.982829392,0.224802509,-0.164989814,0.092160977,267.2453617,351.7853494,45.50232068,right
-0.067632966,0.140091315,0.989165485,-0.006714849,-0.000361495,-0.012906192,262.234694,353.5840866,43.86649038,right
-0.051094979,0.151502565,0.979661286,-0.050078481,0.021928608,-0.029088892,257.9961244,355.7738777,42.26603021,right
0.032002863,0.03107745,1.008173943,0.025359141,-0.020523101,-0.033359572,245.5129497,359.3666834,43.43567961,right
0.007273377,0.070652634,0.967476487,0.023827715,0.001772773,-0.039768461,241.7006591,0.773731993,41.64040537,right
0.015274093,0.024279257,0.999157071,0.018627968,0.028943175,0.065592028,238.5942208,1.868123119,39.90592664,right
-0.005924055,-0.038354918,0.986241162,0.074216709,-0.018704312,0.393015802,237.8588007,0.778827741,37.91770297,right
0.018425889,0.0293779,0.967720211,0.165846497,0.074147202,0.951957524,242.3765746,355.5700571,39.34481977,right
0.072248884,0.115326472,1.00183773,0.121864185,0.107439354,0.895147026,250.2349463,349.4369989,36.35347354,right
0.000484892,0.140576899,0.948224485,0.121253327,0.266264319,1.051833987,259.9993643,346.0461711,33.87547066,right
0.006788486,0.243278161,0.97381264,0.137441263,-0.039779164,0.714025497,264.2284535,342.1680939,31.87876389,right
-0.003455699,0.193505675,1.01207304,-0.299327403,-0.064519212,-0.061467942,259.632952,342.91386,29.63493747,right
0.020365456,0.172868311,0.937989175,0.027173437,-0.019313062,-0.059933271,255.1840331,344.5726739,29.2863212,right
0.059884142,0.089347668,0.986241162,0.01587243,-0.021145659,-0.088338509,223.8699585,354.6054146,54.55998481,right
0.010910066,0.07162381,0.969669759,0.004873574,-0.024196217,0.037797302,221.6024177,355.6799882,52.04062172,right
-0.004196206,-0.006030648,0.991358757,0.15178667,0.070487894,0.495946229,222.9551366,354.0222189,49.90091811,right
0.033215091,0.085220195,0.977711737,0.185995117,0.136155903,0.962952733,228.9548841,347.5753292,48.11679416,right
0.072006434,0.208558813,0.951636195,0.328021288,0.20182392,0.847193778,236.1222387,343.0252997,47.97379048,right
0.03733667,0.256146163,0.970888257,0.394605607,-0.001594204,0.564363122,238.7843869,339.592088,46.87502137,right
-0.004443042,0.304704696,0.932627857,0.397049069,0.342017502,0.506636381,244.9978646,336.9380678,43.11842074,right
-0.009132919,0.283581704,0.937014401,-0.304835111,-0.114909701,-0.06085743,240.3683078,338.0986279,39.26832165,right
-0.00172785,0.339909613,0.952123582,-0.086125046,0.027723745,-0.062677749,236.3353816,340.7482119,36.55885049,right
0.000727338,0.206859276,0.980392396,-0.164621234,-0.05016157,-0.488145411,228.8767194,345.2654344,33.90589232,right
0.043397821,0.037390053,1.000862956,0.053145736,0.066503458,0.070480958,243.7508087,345.6393787,29.10114452,right
0.034912214,0.086191364,0.971375644,0.010992287,0.021602772,0.141010851,242.2812662,345.8560443,28.28196749,right
0.032245304,0.036176093,0.999400795,0.203720272,0.077191509,0.371307045,241.4398962,346.3488467,27.48046187,right
0.034669768,0.075022906,0.947737038,0.248007998,0.123311833,0.923834682,247.902143,343.9117199,26.08121053,right
0.038064007,0.140819684,1.063005686,-0.028103091,0.316956133,0.992251635,256.1185669,343.2411371,21.38499956,right
0.028123727,0.068224713,0.942619443,-0.082775533,0.126366168,1.174900293,266.8580695,342.8546047,13.73438429,right
0.033699982,0.159271926,0.984779,-0.378739715,-0.255730033,0.560675323,273.1112716,341.304635,6.901721314,right
0.038064007,0.18792145,1.022064567,-0.08305563,-0.047408529,-0.020251181,267.9578256,340.8608384,6.249678159,right
0.032002863,0.092989556,0.98063612,-0.005783671,-0.00159342,-0.049261592,262.5596539,341.2875203,7.934245707,right
0.056005009,0.099787742,0.983804166,-0.22049132,0.025280708,-0.172336832,256.9593769,342.5937325,8.305334153,right
0.003879135,0.125280961,0.983073056,0.08370544,0.030773401,0.005118607,257.3933603,350.5667062,23.89073301,right
-0.012835453,0.120910697,0.998182297,0.078800544,0.018247709,-0.041296046,252.5057042,351.9528043,24.22172739,right
0.006061148,0.130136833,0.987215936,0.064741254,0.011828657,0.16942361,250.7444511,352.9547478,23.37110929,right
0.002909351,0.152959317,0.985022664,0.025333541,-0.011989089,-0.069111891,246.7218795,353.5622855,23.18829757,right
-0.005183549,0.106828734,0.99428314,0.06807933,-0.060237572,-0.09078034,241.1438211,354.6484366,23.99663851,right
-0.051588651,-0.024605041,0.974787354,-0.051344827,0.136461034,0.624848306,243.546026,354.294711,23.7188513,right
0.009940282,0.162185445,1.014997482,0.11786484,0.465411961,1.228077769,254.8470862,352.3111493,23.27520831,right
-0.018265838,0.208316028,0.978442848,0.003938477,0.127603486,0.862474859,264.3884234,350.5352916,20.55312521,right
-0.025424073,0.162185445,0.926291704,-0.132589906,0.365535498,1.157522798,274.0206567,351.3215198,16.09978382,right
-0.044430416,0.314901978,0.956266463,0.08121293,-0.060543001,0.377142429,275.0336079,349.6482951,16.8045603,right
-0.017031658,0.042003114,0.981610894,0.015239485,0.130657807,0.302006006,321.8920114,1.259133634,21.17481074,right
-0.013329125,0.097359821,0.992333591,0.014323186,0.046358414,0.410434574,317.8485906,1.177129743,21.43037934,right
0.007030932,0.090318836,0.989409208,-0.016220076,-0.024501955,0.623321116,314.9310241,0.479571541,21.36916377,right
-0.00394937,0.054385535,0.967232823,0.141077727,0.117829651,0.876219332,313.9905856,359.8114361,22.15711318,right
0.015274093,0.111927383,0.978442848,0.089154176,0.355761647,1.221358299,316.592249,359.4238408,21.94232763,right
0.016486323,0.163884997,1.000862956,-0.245294541,0.217706114,1.051537752,319.633179,358.4639792,20.56990869,right
0.019395674,0.236237168,0.923367321,0.365876138,0.085759223,0.886298597,322.1804708,356.9974757,21.0699605,right
-0.035544332,0.311988443,0.994526803,0.01706662,-0.080686025,0.016117543,315.7146005,355.5210065,22.13416033,right
-0.023449387,0.178938136,0.955535352,-0.062640406,-0.025399601,-0.018087922,308.0419997,356.2767414,21.61233729,right
-0.007158234,0.203702971,0.99160248,-0.029037679,-0.122511737,-0.020224035,300.8607729,356.6823697,21.3437862,right
-0.023943057,0.069924265,1.002812624,0.02410475,0.022562757,0.04849023,305.8379625,4.486951903,24.11300103,right
-0.035050664,0.053657159,0.981123507,-0.112423636,0.184747487,0.259849608,301.8759098,6.12173036,22.32051692,right
-0.048379786,0.041031945,1.017921686,0.108404152,0.033558331,0.54390198,300.1696329,5.211307551,23.19483919,right
0.015274093,0.112412959,0.934333682,-0.044006724,-0.002482716,0.997163951,304.5425181,1.709200092,23.47725897,right
0.014304309,0.165827319,1.025232673,-0.284382194,-0.05043564,0.614456892,306.1340273,358.9126172,19.49347942,right
-0.013822797,0.047344554,0.967720211,0.136503965,0.092506826,0.71463877,305.4328059,358.5479231,19.61804158,right
0.036124442,0.124795385,1.003543615,-0.009492837,-0.112438455,0.871936619,309.679155,355.2823713,14.94836589,right
0.020850349,0.119939536,1.012560368,-0.24038507,-0.023857635,-0.033974208,302.9245897,354.6689494,13.40474997,right
0.054550331,0.0587558,0.964795828,0.010997359,-0.010722792,-0.140850872,294.5562556,355.5032651,10.33612186,right
0.005576256,0.169469222,1.016946912,0.419666201,0.119391508,-0.173532173,284.7922133,358.6696341,11.82743987,right
0.034427322,0.022579709,0.97040087,0.024433697,-0.045534633,-0.056544457,273.2394469,351.2891421,9.804097931,right
0.029335955,0.03204862,1.001593947,0.217143536,0.045474075,-0.161289155,266.6775681,352.7984953,10.913342,right
0.008485607,-0.030876914,0.971375644,0.097108521,0.099230215,0.743707716,268.7377785,353.4447545,11.83433836,right
0.057459682,0.080849931,0.975762188,0.243410751,0.134354964,1.028981805,273.3682028,353.6571457,13.66211406,right
0.086553194,0.134992674,0.985753715,-0.002157087,0.131911501,0.644442081,280.7750239,352.3654638,10.96038066,right
0.03733667,0.164613366,0.98404789,0.093443327,0.144434243,0.90803045,286.3985031,352.4095613,9.615747781,right
0.024002146,0.1403341,0.991846144,0.109936684,0.200939283,0.733322978,290.5373586,352.5831454,11.65022549,right
0.030790633,0.324613661,0.935795903,-0.000935277,-0.114562988,0.124279909,288.2989144,351.3142371,13.50335485,right
0.012849634,0.15975751,1.000131965,-0.036050811,0.021655649,-0.045838285,281.935514,351.8453296,12.7039478,right
0.012607188,0.206859276,0.985022664,-0.231527686,0.09251602,-0.171371087,274.5824944,352.4918172,11.0108882,right
0.060853925,-0.025569946,0.970888257,-0.033912782,0.101984426,0.275782257,315.5762584,16.87514177,353.9890032,right
0.007273377,0.012382422,0.990140319,0.208295286,0.057391267,0.563805223,313.7103463,17.45483529,356.7869354,right
0.008728053,0.084977403,0.964552164,0.163091257,-0.047066692,0.776080906,315.4577239,16.41747128,0.171625859,right
0.016001431,0.078907587,1.020846009,0.112084016,0.063194484,0.741567016,314.9690204,15.22944013,1.476489463,right
0.009212945,0.052928779,0.993795693,0.104753628,0.250424683,1.053719163,320.4331274,17.06301637,4.588239766,right
-0.039246868,0.168255255,0.916056454,0.088565692,0.189643592,0.730571389,323.2829418,17.7756544,8.197957603,right
-0.015797481,0.309317738,1.00183773,-0.228473365,-0.108458638,-0.073327221,315.1065326,14.94594459,5.953758933,right
-0.020734195,0.134021491,0.968694925,0.056793727,0.003938586,0.065640703,306.9589844,14.60754799,4.954820288,right
-0.020240523,0.169712007,0.999400795,0.017696304,0.106552169,-0.040949199,299.349095,14.97717222,3.871127106,right
-0.036284842,0.148103476,0.984779,-0.040017318,0.046372537,-0.115445241,291.3560388,14.55228493,2.562364464,right
