acc_x,acc_y,acc_z,gyro_x,gyro_y,gyro_z,direction
0.410652,-0.007198,0.887123,0.020251,-0.013129,-0.016389,up
0.411872,-0.007015,0.88023,0.008838,-0.0127,-0.017247,up
0.412604,-0.008418,0.882731,0.010554,-0.01064,-0.009525,up
0.414251,-0.004819,0.886452,0.01862,-0.009611,-0.0133,up
0.414434,-0.00366,0.883707,0.027888,-0.019822,-0.010125,up
0.417179,-0.002745,0.884439,0.02334,-0.014502,-0.016818,up
0.417972,-0.004087,0.877973,0.022997,-0.001287,-0.009954,up
0.418277,-0.001159,0.883585,0.023597,-0.01965,-0.011756,up
0.419924,-0.003111,0.880291,0.023168,-0.029604,-0.010554,up
0.418094,-0.001525,0.884012,0.023511,-0.019049,-0.007894,up
0.423889,-0.002257,0.883463,0.027115,-0.022911,-0.007122,up
0.423218,-0.00183,0.881938,0.025056,-0.02334,-0.004634,up
0.424926,-0.002318,0.879132,0.027201,-0.025228,-0.011155,up
0.424255,-0.001769,0.87962,0.028231,-0.024112,-0.012013,up
0.426451,-0.001098,0.879132,0.029346,-0.017848,-0.012013,up
0.426451,-0.003172,0.875594,0.029175,-0.004977,-0.019393,up
0.43005,-0.003965,0.878522,0.026171,-0.018363,-0.00738,up
0.431209,-0.002562,0.874313,0.02497,-0.011327,-0.008409,up
0.432124,-0.004148,0.873947,0.019993,-0.011584,-0.008581,up
0.433771,-0.003233,0.875716,0.030204,0.003003,-0.012271,up
0.695217,-0.007747,0.682712,0.030548,-0.017762,-0.003261,up
0.695949,-0.007381,0.681919,0.043676,-0.012185,-0.009696,up
0.695705,-0.008784,0.678747,0.030376,-0.021109,-0.001116,up
0.696742,-0.009943,0.677161,0.028317,-0.03398,-0.002917,up
0.697474,-0.009638,0.680028,0.028832,-0.031921,-0.007036,up
0.695156,-0.009089,0.681309,0.031577,-0.028746,-0.007036,up
0.694912,-0.011163,0.680882,0.033808,-0.027544,-0.005406,up
0.694729,-0.009821,0.679479,0.032521,-0.029947,-0.003776,up
0.692533,-0.011285,0.683505,0.026343,-0.020937,-0.003604,up
0.69418,-0.013176,0.680333,0.025056,-0.042132,-0.003432,up
0.690825,-0.010919,0.687836,0.026515,0.008667,-0.003347,up
0.692594,-0.013481,0.683322,0.019135,0.018535,-0.012271,up
0.700341,-0.010309,0.679052,0.019307,0.003261,-0.020594,up
0.703208,-0.013054,0.670451,0.024026,-0.009096,-0.012271,up
0.706624,-0.012139,0.670756,0.02866,0.016818,-0.005749,up
0.711626,-0.01586,0.662582,0.04299,-0.003261,-0.004548,up
0.711382,-0.01403,0.664717,0.036297,-0.006607,-0.003261,up
0.715652,-0.017629,0.660813,0.023168,-0.019993,-0.00369,up
0.714737,-0.016287,0.659105,0.02128,-0.018535,-0.00635,up
0.717665,-0.016226,0.65941,0.02334,-0.020422,-0.001201,up
0.737612,-0.013542,0.635803,0.033036,-0.024884,-0.00532,up
0.736209,-0.013603,0.635254,0.022997,-0.021538,-0.003776,up
0.737124,-0.012566,0.634034,0.024455,-0.029089,-0.00798,up
0.736575,-0.011529,0.638487,0.029003,-0.028317,-0.010554,up
0.736697,-0.012383,0.636352,0.000601,-0.043676,-0.009353,up
0.735538,-0.012261,0.634461,0.029003,-0.030204,-0.005148,up
0.736514,-0.012078,0.636535,0.025142,-0.019564,-0.005578,up
0.735599,-0.012566,0.635925,0.028917,-0.024884,-0.003175,up
0.737124,-0.012139,0.634766,0.024884,-0.021624,-0.00532,up
0.735599,-0.012566,0.635864,0.025485,-0.022825,-0.007809,up
0.495808,-0.008784,0.841434,0.004033,-0.003432,-0.017162,up
0.497211,-0.005002,0.840824,-0.00695,0.003861,-0.030462,up
0.502518,-0.006893,0.83753,0.014587,-0.019822,-0.015274,up
0.500932,-0.005673,0.835944,0.021023,-0.002231,-0.009353,up
0.500688,-0.005307,0.837835,0.023855,-0.020079,-0.007036,up
0.499346,-0.004453,0.834114,0.028574,-0.026086,-0.003776,up
0.49898,-0.002806,0.840031,0.065043,-0.04136,-0.004548,up
0.49288,-0.003843,0.844667,0.029003,0.010812,0.001802,up
0.497882,-0.002928,0.836798,0.012957,-0.026343,-0.019478,up
0.497394,-0.002806,0.835639,0.000858,-0.050798,-0.019993,up
0.49654,0.007137,0.840641,0.020079,-0.022653,-0.001201,up
0.499163,0.008601,0.838567,0.024198,-0.01965,-0.006779,up
0.496845,0.006222,0.842837,0.006007,-0.041445,-0.007465,up
0.50264,0.017263,0.831796,0.008152,-0.062125,-0.041188,up
0.497394,0.015067,0.845887,0.050627,-0.042132,-0.029346,up
0.489647,0.004453,0.833443,0.034152,-0.04668,0.001287,up
0.49105,0.003782,0.84668,0.038442,-0.000515,-0.002059,up
0.491599,0.005002,0.835639,0.028488,-0.031749,-0.004033,up
0.490989,0.01342,0.846436,0.051485,-0.018878,-0.007036,up
0.490806,0.003843,0.852841,0.095075,-0.009181,-0.004634,up
0.815997,-0.030866,0.518439,0.043333,-0.031063,-0.003604,up
0.817888,-0.035319,0.52094,0.025399,-0.042303,-0.000601,up
0.818559,-0.034831,0.523441,0.022396,-0.04462,-0.012871,up
0.814472,-0.039162,0.525149,0.027973,-0.03398,-0.000172,up
0.820694,-0.032696,0.52826,0.034752,-0.03029,-0.021195,up
0.81374,-0.03721,0.52277,0.070792,-0.056548,-0.014416,up
0.807579,-0.039345,0.528931,0.010469,-0.000944,0.001802,up
0.81069,-0.036112,0.540338,0.039729,-0.019478,0.005148,up
0.810263,-0.037454,0.531615,0.025228,-0.020937,0.006092,up
0.810873,-0.035624,0.533933,0.029604,-0.02703,0.00103,up
0.878522,-0.044957,0.416447,0.025914,-0.046937,-0.005406,up
0.87535,-0.046848,0.419924,0.022825,-0.056805,-0.002059,up
0.873947,-0.044896,0.42822,0.021881,-0.047709,-0.002746,up
0.870836,-0.045445,0.43066,0.014759,-0.041874,-0.003089,up
0.871263,-0.044347,0.432917,0.019221,-0.037241,-0.008238,up
0.86803,-0.042395,0.435784,0.013644,-0.014931,0.002145,up
0.869738,-0.041053,0.438102,0.026171,-0.022825,-0.005063,up
0.869311,-0.041419,0.435723,0.024627,-0.018792,-0.003261,up
0.870104,-0.04148,0.435967,0.034323,-0.030719,-0.006693,up
0.867969,-0.039467,0.438041,0.031148,-0.034924,-0.005835,up
0.710894,-0.054351,0.663497,0.023855,-0.026772,0.002231,up
0.711687,-0.05368,0.662887,0.030719,-0.018792,0.002488,up
0.711626,-0.052216,0.667584,0.022911,-0.010983,-0.006607,up
0.709369,-0.052643,0.655384,0.02334,-0.041274,0.002832,up
0.710406,-0.05246,0.667218,0.028145,-0.043076,-0.002059,up
0.711992,-0.054839,0.661179,0.007036,-0.004891,0.005578,up
0.713761,-0.048922,0.652944,0.016561,-0.039643,-0.002145,up
0.714493,-0.048373,0.664046,0.030033,-0.033723,-0.002145,up
0.711931,-0.046116,0.664412,0.025228,-0.008066,-0.008667,up
0.711626,-0.047031,0.656543,0.031148,-0.033465,-0.005063,up
0.615612,-0.029951,0.753716,0.024198,-0.071049,-0.000429,up
0.606401,-0.028304,0.758596,0.028574,-0.045993,-0.008667,up
0.602192,-0.028975,0.76311,0.018363,-0.047795,0.002574,up
0.598044,-0.030073,0.764086,0.046079,-0.078514,0.009267,up
0.592432,-0.027084,0.771833,0.02969,-0.035525,-0.003261,up
0.589138,-0.028304,0.77287,0.025313,-0.028145,-0.005578,up
0.586027,-0.028243,0.779824,0.003518,-0.031577,-0.013729,up
0.585844,-0.024949,0.774578,-0.011241,-0.027716,-0.016818,up
0.584258,-0.025132,0.777079,0.030719,-0.05732,-0.006693,up
0.580476,-0.022204,0.783423,0.016904,0.018363,-0.014502,up
0.575047,-0.024095,0.78751,0.025056,-0.022997,-0.000944,up
0.572912,-0.023668,0.787388,0.026944,-0.020165,-0.004719,up
0.574498,-0.023668,0.786473,0.020422,-0.022568,-0.009353,up
0.571753,-0.02318,0.786534,0.019564,-0.034752,-0.006865,up
0.571326,-0.021899,0.789462,0.025914,-0.031063,-0.010898,up
0.570472,-0.022143,0.790194,0.030204,-0.023426,-0.004033,up
0.569923,-0.020191,0.78934,0.000944,-0.016647,-0.007208,up
0.572241,-0.022021,0.78446,0.034409,-0.022224,-0.004805,up
0.570289,-0.021289,0.786351,0.030634,-0.032435,-0.001201,up
0.568642,-0.022082,0.78995,0.031234,-0.041874,-0.001888,up
0.490501,-0.015494,0.843874,0.031921,-0.041703,-0.004205,up
0.489769,-0.016104,0.849486,0.038528,-0.02497,-0.009439,up
0.487634,-0.01891,0.840519,0.016818,-0.029775,-0.003518,up
0.49166,-0.019093,0.845704,0.036468,-0.02334,-0.005663,up
0.485255,-0.016958,0.838811,0.027459,-0.039643,-0.004977,up
0.487146,-0.018178,0.849913,0.034752,-0.009353,-0.003003,up
0.485438,-0.019886,0.839177,0.019993,-0.022396,-0.002488,up
0.490013,-0.018483,0.848144,0.026686,-0.012785,-0.007208,up
0.488305,-0.018178,0.839055,0.024627,-0.02231,-0.000429,up
0.49105,-0.017324,0.845399,0.039386,-0.017076,-0.012614,up
0.449631,-0.046726,0.868945,0.029089,-0.011498,0.012271,up
0.455731,-0.034709,0.860283,0.02866,-0.030376,-0.005921,up
0.453962,-0.033062,0.866932,0.059722,0.003261,-0.011498,up
0.456097,-0.036417,0.856074,0.074482,0.051485,-0.017505,up
0.469212,-0.045445,0.856684,0.036297,-0.004548,-0.008667,up
0.471835,-0.049837,0.854,0.022139,-0.014845,-0.00798,up
0.476593,-0.051179,0.851438,0.03029,-0.043848,-0.004805,up
0.477081,-0.049166,0.848937,0.057234,-0.038528,-0.007465,up
0.473299,-0.056486,0.850706,0.025399,-0.028059,-0.00532,up
0.472628,-0.055937,0.851438,0.01965,-0.030376,-0.005663,up
0.443714,-0.071614,0.86803,-0.017162,-0.067531,-0.028746,up
0.441701,-0.065148,0.870226,0.003089,-0.047881,-0.023683,up
0.435113,-0.061793,0.868701,0.017162,-0.039815,-0.008409,up
0.432124,-0.061122,0.875106,0.019221,-0.025228,0.003861,up
0.429135,-0.059658,0.875289,0.011842,-0.086495,-0.018277,up
0.42334,-0.056852,0.877607,0.005578,-0.045736,-0.011498,up
0.417118,-0.052765,0.880962,0.002917,-0.040931,-0.004805,up
0.413519,-0.047946,0.881694,0.023254,-0.020422,-0.008409,up
0.41358,-0.047885,0.886391,0.020337,-0.015875,-0.010898,up
0.414251,-0.048251,0.881023,0.014759,-0.024713,-0.008323,up
0.386801,-0.027999,0.898408,0.014673,-0.019993,-0.007465,up
0.389485,-0.027328,0.894626,0.024799,-0.019736,-0.00738,up
0.389729,-0.025864,0.896151,0.034066,-0.023168,-0.004548,up
0.38918,-0.027023,0.895907,0.025228,-0.026171,-0.003432,up
0.389363,-0.027694,0.898896,0.032779,-0.021795,-0.005749,up
0.386984,-0.02745,0.897676,0.025056,-0.017762,-0.004376,up
0.388814,-0.027877,0.896883,0.028231,-0.020422,-0.012785,up
0.387716,-0.027877,0.896944,0.022568,-0.023597,-0.007294,up
0.389912,-0.028853,0.895053,0.025228,-0.029432,-0.010297,up
0.388265,-0.026779,0.899384,0.026257,-0.020766,-0.009267,up
0.382104,-0.02684,0.901824,0.022139,-0.007465,0.002145,up
0.387899,-0.024644,0.894199,0.028746,-0.028403,-0.009611,up
0.384666,-0.023607,0.898225,0.020079,-0.043591,-0.007637,up
0.384849,-0.024339,0.899262,0.023168,-0.024112,-0.008238,up
0.383507,-0.022082,0.89914,0.027287,-0.022739,-0.01596,up
0.385581,-0.024095,0.898103,0.028832,-0.027802,-0.007036,up
0.381799,-0.025437,0.899079,0.020422,-0.016647,-0.005921,up
0.382775,-0.025071,0.90097,0.01965,-0.009868,-0.009267,up
0.385947,-0.025193,0.894809,0.020165,-0.027373,-0.006521,up
0.385032,-0.023729,0.899994,0.027373,-0.027716,-0.013043,up
0.588467,-0.029524,0.774639,0.016304,-0.033637,-0.006264,up
0.587613,-0.028548,0.771467,0.020337,-0.027888,-0.005578,up
0.586149,-0.027023,0.776286,0.025056,-0.026515,-0.004205,up
0.584868,-0.026413,0.776286,0.02497,-0.022482,-0.003947,up
0.584868,-0.024522,0.776835,0.02128,-0.020937,-0.011155,up
0.584624,-0.027755,0.774395,0.014673,-0.02437,-0.003175,up
0.585478,-0.025803,0.775615,0.024026,-0.026429,-0.006092,up
0.585478,-0.025498,0.776652,0.025313,-0.020594,-0.005749,up
0.585173,-0.023973,0.777079,0.013214,-0.02334,-0.00901,up
0.584685,-0.022021,0.777872,0.02969,-0.021709,-0.009267,up
0.567971,-0.017202,0.789401,0.020079,-0.022653,-0.008409,up
0.567117,-0.01769,0.790621,0.030462,-0.026429,-0.007122,up
0.568215,-0.016836,0.788791,0.028574,-0.028231,-0.008066,up
0.566507,-0.017263,0.788181,0.031663,-0.001545,-0.004805,up
0.565348,-0.017629,0.792939,0.029432,-0.016904,-0.004805,up
0.565348,-0.016714,0.789645,0.026858,-0.025914,-0.007637,up
0.565836,-0.017751,0.790926,0.023254,-0.000601,-0.008667,up
0.566812,-0.017141,0.78934,0.026772,-0.000257,-0.010297,up
0.564799,-0.016653,0.795379,0.026601,-0.012013,-0.005234,up
0.568093,-0.0183,0.789279,0.026429,-0.000601,-0.008152,up
0.661728,-0.013725,0.712724,0.020766,-0.017934,-0.010726,up
0.661789,-0.013481,0.711565,0.023769,-0.030977,-0.006436,up
0.661362,-0.012932,0.715286,0.043076,-0.024541,-0.008581,up
0.66124,-0.013054,0.711321,0.027888,-0.039386,-0.007208,up
0.659105,-0.011895,0.720227,0.025828,-0.015789,-0.010469,up
0.660264,-0.013481,0.717604,0.021538,-0.018449,-0.003518,up
0.658312,-0.014579,0.711931,0.019564,-0.026429,0.000172,up
0.66002,-0.011285,0.716201,0.030977,-0.032435,-0.006178,up
0.660508,-0.012993,0.716018,0.028231,-0.024541,-0.006521,up
0.6588,-0.012261,0.715042,0.025657,-0.023511,-0.009181,up
-0.663741,-0.054656,0.734684,0.019993,-0.01802,-0.005063,down
-0.662216,-0.054839,0.735904,0.030977,-0.022482,-0.004033,down
-0.664168,-0.054778,0.735233,0.028231,-0.026429,-0.002917,down
-0.663314,-0.056425,0.735904,0.029346,-0.029003,0.002746,down
-0.664046,-0.052338,0.735538,0.032693,-0.026772,0.003861,down
-0.666059,-0.056425,0.735538,0.025142,-0.028317,-0.000343,down
-0.664595,-0.054961,0.735416,0.001974,-0.041445,-0.015875,down
-0.666364,-0.054717,0.734074,0.031492,-0.013129,-0.021881,down
-0.66246,-0.055449,0.73444,0.024884,-0.02497,-0.012442,down
-0.660874,-0.053924,0.733952,0.020851,0.004033,-0.008323,down
-0.917867,-0.07747,0.392596,0.032521,-0.00532,0.004548,down
-0.916159,-0.076128,0.395829,0.036125,-0.024627,0.005492,down
-0.912499,-0.078751,0.396927,0.031063,-0.031063,0.007465,down
-0.912682,-0.077348,0.395402,0.040587,-0.017676,-0.010554,down
-0.916342,-0.078507,0.394243,0.025914,-0.022224,-0.005749,down
-0.914695,-0.076433,0.39467,0.040416,-0.026686,0.000686,down
-0.913414,-0.076311,0.396927,0.049082,-0.030719,0.002574,down
-0.913597,-0.076006,0.397781,0.036726,-0.020766,-0.000172,down
-0.916586,-0.07625,0.395463,0.030548,-0.013129,0.010726,down
-0.915183,-0.074603,0.398452,0.020251,-0.024627,0.008924,down
-0.866993,-0.053131,0.490684,0.034066,-0.033208,0.005578,down
-0.86681,-0.052338,0.487512,0.058435,-0.024112,0.007122,down
-0.869006,-0.050752,0.48373,0.03029,-0.014587,0.01004,down
-0.870043,-0.052887,0.486536,0.040931,-0.021967,0.003432,down
-0.871507,-0.050996,0.484218,0.051914,-0.000257,0.024284,down
-0.868091,-0.052521,0.485621,0.030033,-0.029261,-0.003947,down
-0.86681,-0.052582,0.486414,0.014845,-0.017333,-0.001974,down
-0.870531,-0.05307,0.486414,0.015617,-0.018191,-0.000086,down
-0.868091,-0.051484,0.487573,0.026772,-0.030548,-0.006436,down
-0.869067,-0.053924,0.486658,0.040501,-0.034924,-0.00429,down
-0.694058,-0.044896,0.706563,0.030462,-0.029861,-0.004119,down
-0.692655,-0.046238,0.707356,0.036898,-0.036383,-0.013729,down
-0.696071,-0.04575,0.706807,0.043419,-0.026343,-0.003347,down
-0.694668,-0.044896,0.70577,0.022997,-0.026515,-0.003347,down
-0.695827,-0.048739,0.707783,0.016389,-0.037327,-0.016561,down
-0.696559,-0.045567,0.705038,0.03235,-0.030376,-0.008238,down
-0.696498,-0.043188,0.706014,0.029947,-0.029175,-0.00369,down
-0.695217,-0.040443,0.704428,0.024284,-0.026858,-0.010812,down
-0.699304,-0.045262,0.706014,0.042475,-0.018792,-0.002488,down
-0.698755,-0.044713,0.706258,0.03827,-0.032521,-0.000944,down
-0.610183,-0.033489,0.776957,0.019993,-0.015016,-0.018449,down
-0.60878,-0.030805,0.778909,0.028231,-0.017505,-0.009096,down
-0.609878,-0.029341,0.780068,0.047023,-0.029947,-0.021624,down
-0.609573,-0.031171,0.779763,0.031749,-0.033894,-0.002488,down
-0.610183,-0.030073,0.777567,0.01004,-0.01064,-0.008667,down
-0.611342,-0.029341,0.779702,0.019822,-0.028746,-0.003003,down
-0.608475,-0.029463,0.780312,0,-0.025142,-0.003003,down
-0.609268,-0.030866,0.779458,0.023168,-0.030462,-0.007723,down
-0.610976,-0.03111,0.779214,0.027544,-0.030119,-0.009611,down
-0.611159,-0.030683,0.779092,0.025914,-0.022053,-0.001459,down
-0.881389,-0.065758,0.465369,0.023426,-0.019822,0.004548,down
-0.883097,-0.065697,0.463966,0.01596,-0.016647,0.00695,down
-0.880413,-0.067954,0.467565,0.01699,-0.017333,-0.003776,down
-0.87962,-0.066063,0.467199,0.026686,-0.027716,-0.004548,down
-0.878583,-0.065087,0.467077,0.021881,-0.028746,-0.001201,down
-0.879376,-0.066124,0.465796,0.013129,-0.024541,-0.009267,down
-0.8784,-0.064965,0.466284,0.005406,-0.022482,-0.010211,down
-0.878949,-0.065209,0.467138,0.016132,-0.025914,-0.005578,down
-0.879803,-0.065148,0.465552,0.02437,-0.020508,-0.00369,down
-0.880352,-0.065453,0.46543,0.023168,-0.02763,-0.002574,down
-0.663619,-0.027023,0.734074,0.016561,-0.026257,-0.012013,down
-0.660874,-0.029036,0.735233,0.029775,-0.040587,-0.019307,down
-0.663192,-0.029036,0.736453,0.031406,-0.042132,-0.014759,down
-0.66551,-0.025742,0.733464,0.034066,-0.025399,0.007036,down
-0.66673,-0.026169,0.734562,0.030548,-0.024026,-0.002317,down
-0.666181,-0.026596,0.734806,0.034924,-0.029175,-0.004634,down
-0.666059,-0.025742,0.735721,0.04462,-0.014073,-0.003432,down
-0.666425,-0.025986,0.735111,0.022911,-0.025914,-0.007122,down
-0.666303,-0.026657,0.734257,0.013214,-0.043934,-0.00266,down
-0.663192,-0.027328,0.734745,0.028145,-0.032178,-0.011069,down
-0.625433,-0.013542,0.765611,0.025742,-0.028832,-0.003518,down
-0.626714,-0.013725,0.764574,0.029604,-0.023254,-0.003604,down
-0.623115,-0.014701,0.763415,0.026,-0.021967,-0.000172,down
-0.623603,-0.01464,0.764025,0.043247,-0.018706,-0.009181,down
-0.627812,-0.017446,0.764513,0.02334,-0.027888,-0.003175,down
-0.626958,-0.015494,0.765245,0.035868,-0.030033,0.000686,down
-0.626531,-0.017202,0.763659,0.032607,-0.018878,-0.000257,down
-0.627751,-0.017934,0.763903,0.034752,-0.028488,-0.00798,down
-0.62769,-0.018056,0.763354,0.037069,-0.029261,-0.002403,down
-0.627385,-0.020069,0.763476,0.032865,-0.024627,-0.006865,down
-0.923967,-0.090585,0.370819,0.025914,-0.025056,-0.003003,down
-0.924211,-0.089487,0.371063,0.034409,-0.02437,-0.000772,down
-0.925492,-0.090585,0.369782,0.033808,-0.026601,0.001459,down
-0.923967,-0.090585,0.370087,0.032178,-0.02703,-0.000601,down
-0.925492,-0.091378,0.367891,0.026686,-0.024455,0.021624,down
-0.925675,-0.089609,0.369172,0.033122,-0.029432,0.00163,down
-0.926285,-0.09028,0.369416,0.02703,-0.026429,-0.002145,down
-0.926712,-0.088999,0.367891,0.019908,-0.018191,-0.005406,down
-0.925675,-0.08845,0.368135,0.043419,-0.015445,-0.00532,down
-0.925187,-0.087779,0.369172,0.015274,-0.023511,-0.002317,down
-0.710772,-0.029585,0.691984,0.030204,-0.033808,-0.006178,down
-0.711626,-0.029219,0.690215,0.028574,-0.023426,-0.002059,down
-0.712053,-0.028365,0.68991,0.031234,-0.01802,-0.000601,down
-0.71187,-0.02867,0.690459,0.023769,-0.021195,-0.00695,down
-0.712846,-0.026718,0.689727,0.023769,-0.015102,-0.000086,down
-0.713395,-0.027572,0.689239,0.02703,-0.000686,-0.001888,down
-0.711992,-0.028304,0.68991,0.022911,-0.018449,-0.00532,down
-0.711443,-0.027145,0.690581,0.019307,-0.030376,-0.004376,down
-0.711748,-0.02684,0.690215,0.016561,-0.000601,-0.004805,down
-0.71248,-0.027633,0.690459,0.024112,-0.026858,-0.003947,down
-0.573644,-0.005307,0.807579,0.038785,-0.035181,-0.008323,down
-0.572119,-0.003294,0.80581,0.02231,-0.031406,-0.008323,down
-0.573705,-0.003355,0.803919,0.02763,-0.036383,-0.008409,down
-0.576938,-0.003965,0.802272,0.022139,-0.022739,-0.003947,down
-0.579195,-0.005795,0.802089,0.035096,-0.032521,-0.002403,down
-0.580232,-0.007076,0.800869,0.03295,-0.038785,-0.006178,down
-0.582367,-0.008723,0.798734,0.036468,-0.032006,-0.001716,down
-0.583526,-0.010736,0.798551,0.030634,-0.032779,-0.000944,down
-0.584502,-0.011102,0.795928,0.024627,-0.027716,-0.005578,down
-0.586393,-0.011895,0.795684,0.033036,-0.026257,-0.006693,down
-0.878888,-0.058011,0.469334,0.043762,-0.043419,0.013644,down
-0.883341,-0.062769,0.463234,0.042218,-0.029346,-0.021195,down
-0.886086,-0.063013,0.460245,0.053115,-0.035525,0.016647,down
-0.875655,-0.061488,0.464027,0.018191,-0.029261,-0.010297,down
-0.882731,-0.063745,0.458354,-0.032006,0.001888,-0.009696,down
-0.875289,-0.056913,0.468846,0.019393,-0.033036,-0.004462,down
-0.878339,-0.057096,0.46726,0.021709,-0.025399,-0.010898,down
-0.879864,-0.056303,0.467016,0.019049,-0.023597,-0.005063,down
-0.882304,-0.0549,0.466345,0.022482,-0.019564,0.006436,down
-0.880535,-0.055937,0.464698,0.017247,-0.020937,0.001116,down
-0.959286,-0.027877,0.2806,0.024799,-0.022482,0.003604,down
-0.959591,-0.027938,0.279746,0.025742,-0.009954,-0.006178,down
-0.960201,-0.028914,0.281149,0.030376,-0.024284,-0.001888,down
-0.957212,-0.026352,0.285053,0.027716,-0.017591,-0.005148,down
-0.957212,-0.027877,0.284199,0.023168,-0.031921,0.003776,down
-0.959347,-0.029036,0.283467,0.03767,-0.025399,0.001201,down
-0.9577,-0.027267,0.284626,0.049254,-0.02866,0.005492,down
-0.959591,-0.03233,0.283528,0.026086,-0.029861,-0.00635,down
-0.958127,-0.027572,0.28304,0.035181,-0.027973,0.002403,down
-0.959774,-0.029402,0.283345,0.027973,-0.024112,0.001201,down
-0.990457,-0.015433,0.160125,0.043676,-0.017934,-0.00266,down
-0.990152,-0.014945,0.160735,0.025828,-0.023168,-0.021452,down
-0.991433,-0.01403,0.160186,0.032435,-0.016389,0.005234,down
-0.990518,-0.014579,0.161772,0.029261,-0.043762,-0.002059,down
-0.989115,-0.013359,0.16226,0.033208,-0.02394,-0.001802,down
-0.990945,-0.014152,0.160308,0.035525,-0.019049,0.001888,down
-0.988627,-0.012566,0.165798,0.033465,-0.024713,-0.003518,down
-0.991189,-0.012932,0.161589,0.039558,-0.013558,0.006264,down
-0.990518,-0.013542,0.162504,0.023683,-0.017076,0.001373,down
-0.989725,-0.01403,0.164639,0.034495,-0.016647,0.000601,down
-0.644099,0.039955,0.7503,0.031835,-0.019135,-0.001888,down
-0.644282,0.040687,0.750361,0.039214,-0.037927,-0.003518,down
-0.64355,0.039345,0.750056,0.036726,-0.031835,0.001974,down
-0.645746,0.039528,0.733952,0.03561,-0.031835,-0.020851,down
-0.645014,0.03843,0.747677,0.029003,-0.001201,-0.000601,down
-0.647576,0.037515,0.747982,0.032092,-0.065643,-0.001459,down
-0.647698,0.035624,0.746335,0.01965,-0.04299,-0.004462,down
-0.649406,0.034038,0.745481,0.024541,-0.02334,-0.005749,down
-0.651358,0.033794,0.744871,0.040845,-0.029346,-0.004205,down
-0.652029,0.033611,0.743712,0.037241,-0.027287,0.000257,down
-0.526796,0.002257,0.834053,0.02703,-0.023254,-0.002917,down
-0.527833,0.003111,0.832772,0.023683,-0.027373,-0.009525,down
-0.528748,0.003416,0.833382,0.023769,-0.026686,-0.005234,down
-0.52887,0.003477,0.832833,0.019736,-0.026515,-0.003003,down
-0.529968,0.002928,0.832406,0.025914,-0.025742,-0.002317,down
-0.53009,0.003172,0.831735,0.028059,-0.024026,-0.001545,down
-0.529175,0.003233,0.832284,0.02231,-0.025056,-0.00695,down
-0.531005,0.003172,0.831918,0.028403,-0.022825,0.001716,down
-0.531005,0.004209,0.831552,0.030805,-0.024112,0.021881,down
-0.529846,0.003294,0.832406,0.027544,-0.00103,-0.000172,down
-0.781288,-0.041114,0.611342,0.009954,-0.024713,0.003518,down
-0.781715,-0.040687,0.611464,0.011069,-0.022825,-0.002917,down
-0.781776,-0.039589,0.610915,0.009267,-0.026429,-0.002317,down
-0.781776,-0.03904,0.611037,0.020337,-0.027115,-0.002488,down
-0.783728,-0.038613,0.61061,0.027716,-0.02866,-0.000515,down
-0.783545,-0.038674,0.610244,0.028832,-0.028574,0.002231,down
-0.784277,-0.038979,0.610305,0.030634,-0.028145,-0.002403,down
-0.785741,-0.036661,0.608719,0.019993,-0.027373,-0.000686,down
-0.783057,-0.03782,0.608719,0.014845,-0.023597,-0.005578,down
-0.784033,-0.036722,0.608536,0.018964,-0.024627,-0.003003,down
-0.87962,-0.0366,0.468358,0.020508,-0.027802,-0.021967,down
-0.878461,-0.036966,0.468175,0.023769,-0.033294,-0.002917,down
-0.879681,-0.03721,0.467565,0.038099,-0.036297,-0.005406,down
-0.881999,-0.036783,0.465491,0.028574,-0.022568,-0.00266,down
-0.881084,-0.035624,0.465308,0.031063,-0.024627,-0.00695,down
-0.886208,-0.034038,0.464637,0.031406,-0.009181,0.006607,down
-0.881389,-0.033062,0.46604,0.042732,-0.020337,-0.001716,down
-0.881816,-0.032513,0.464881,0.002403,-0.027973,-0.005148,down
-0.881877,-0.031171,0.465003,0.029432,-0.025742,-0.021709,down
-0.882853,-0.031293,0.464271,0.024198,-0.025056,-0.001373,down
-0.924943,-0.023607,0.374723,0.029175,-0.028059,-0.001545,down
-0.924882,-0.022875,0.373564,0.036726,-0.022911,0.002832,down
-0.925248,-0.02501,0.374418,0.033208,-0.028488,0.021538,down
-0.925736,-0.026108,0.374357,0.024884,-0.026343,0.02128,down
-0.925614,-0.025681,0.374052,0.000429,-0.042647,-0.003175,down
-0.925797,-0.02623,0.374479,0.01004,-0.020594,-0.003432,down
-0.925248,-0.025925,0.374052,0.019908,-0.023769,-0.002488,down
-0.924516,-0.026535,0.374113,0.017505,-0.029604,-0.00103,down
-0.923357,-0.024705,0.37454,0.017848,-0.027716,-0.004376,down
-0.923601,-0.025559,0.373198,0.015789,-0.026086,-0.009696,down
-0.65941,-0.037027,0.738039,0.03132,-0.031148,-0.015617,down
-0.662216,-0.035685,0.73566,0.011584,-0.031663,-0.014759,down
-0.665022,-0.033611,0.733647,0.024541,-0.031492,-0.008838,down
-0.665144,-0.033367,0.733525,0.030891,-0.034752,-0.005835,down
-0.666486,-0.032025,0.732915,0.032521,-0.02969,-0.008581,down
-0.670329,-0.031354,0.73139,0.022568,-0.01862,-0.00695,down
-0.668194,-0.02928,0.730597,0.031234,-0.030119,-0.00695,down
-0.670451,-0.028853,0.731024,0.03029,-0.032178,-0.005749,down
-0.669963,-0.027938,0.729377,0.018277,-0.026772,-0.000429,down
-0.669536,-0.027816,0.729072,0.016647,-0.031749,-0.00695,down
-0.222955,0.261751,0.917135,-0.012871,-0.022224,-0.011155,left
-0.223382,0.272243,0.914878,0.008581,-0.024026,-0.003089,left
-0.222101,0.273829,0.912255,-0.015789,-0.030977,-0.006607,left
-0.223077,0.281881,0.910303,-0.001373,-0.027544,-0.004805,left
-0.222955,0.284016,0.908534,0.00266,-0.02231,-0.01004,left
-0.222894,0.28975,0.907375,0.014158,-0.02231,-0.004805,left
-0.224175,0.294325,0.904874,0.004805,-0.01862,-0.001802,left
-0.224297,0.298107,0.902861,0.005492,-0.018191,-0.005492,left
-0.222284,0.302621,0.902007,0.030376,-0.031577,-0.002145,left
-0.227774,0.297741,0.901336,-0.005063,-0.025742,0.004119,left
-0.209657,0.751276,0.585295,0.03235,-0.028917,-0.008667,left
-0.206851,0.749934,0.588101,0.022139,-0.020766,-0.00738,left
-0.204472,0.75152,0.586576,0.03827,-0.026858,-0.010983,left
-0.208681,0.748592,0.588223,0.027802,-0.022396,0.001287,left
-0.209169,0.746457,0.594079,0.025056,-0.011412,-0.014244,left
-0.211914,0.741943,0.59719,-0.00369,-0.012271,-0.027287,left
-0.202825,0.750544,0.588284,0.022739,-0.026858,-0.01433,left
-0.2013,0.749019,0.590541,0.029861,-0.023511,-0.006779,left
-0.203618,0.751154,0.588162,0.039129,-0.032521,-0.006607,left
-0.201849,0.751337,0.588772,0.029175,-0.02763,-0.004462,left
-0.198067,0.846192,0.446886,0.006693,-0.009096,-0.013472,left
-0.191906,0.851072,0.44103,0.04462,-0.034838,0.003861,left
-0.196054,0.847351,0.446154,0.020337,-0.02437,-0.009611,left
-0.195261,0.847717,0.446398,0.028574,-0.01699,-0.005921,left
-0.193065,0.848022,0.44652,0.030033,-0.025914,-0.005063,left
-0.195322,0.846009,0.448594,0.01596,-0.015102,-0.01596,left
-0.192821,0.848388,0.445483,0.024884,-0.020508,-0.011584,left
-0.188429,0.852292,0.441396,0.036812,-0.010469,-0.013815,left
-0.180072,0.852292,0.443287,0.046165,-0.028231,0.002317,left
-0.184098,0.850584,0.44591,0.026772,-0.023254,-0.005663,left
-0.182451,0.843813,0.45994,0.036039,-0.025914,0.000601,left
-0.179035,0.844911,0.460306,0.033637,-0.025313,-0.021967,left
-0.182634,0.843874,0.461953,0.022482,-0.01802,-0.002574,left
-0.181231,0.844362,0.461221,0.025914,-0.026686,-0.005663,left
-0.181109,0.84424,0.461099,0.034495,-0.001459,-0.007465,left
-0.179035,0.844118,0.460794,0.030376,-0.02128,-0.000429,left
-0.174338,0.84485,0.462563,0.038099,-0.02497,0.006092,left
-0.184403,0.842227,0.463051,0.013729,-0.013386,-0.004119,left
-0.180255,0.843325,0.462075,0.024799,-0.01965,-0.001888,left
-0.177083,0.842166,0.464698,0.033208,-0.026343,-0.002059,left
-0.175375,0.71431,0.641232,0.02763,-0.017076,-0.008581,left
-0.176778,0.714005,0.640134,0.01699,-0.021709,-0.000858,left
-0.18239,0.712236,0.64111,0.010125,-0.018964,-0.002145,left
-0.179462,0.716323,0.638731,0.016046,-0.043162,-0.002145,left
-0.179767,0.715835,0.638731,0.015445,-0.013815,-0.004891,left
-0.179096,0.715896,0.637633,0.028145,-0.012528,-0.003003,left
-0.175863,0.717604,0.63623,0.030204,-0.029003,0.004462,left
-0.177693,0.716445,0.638304,0.01862,-0.008409,-0.001716,left
-0.175497,0.71797,0.636657,0.024713,-0.020165,-0.005148,left
-0.176046,0.717421,0.637877,0.014502,-0.009868,-0.005063,left
-0.151585,0.618235,0.737551,0.043676,-0.021023,-0.003347,left
-0.152195,0.61671,0.737856,0.020337,-0.007465,-0.001201,left
-0.1525,0.614575,0.738832,0.007208,-0.020851,-0.020165,left
-0.152378,0.622261,0.734928,0.036468,-0.024112,0.007894,left
-0.152195,0.618235,0.737185,0.017505,-0.042561,-0.003261,left
-0.15677,0.616405,0.736514,0.020766,0.010469,-0.012442,left
-0.15128,0.62525,0.732732,0.042475,-0.034152,0.009611,left
-0.148657,0.620431,0.735599,0.032607,-0.038528,0.000944,left
-0.155855,0.618784,0.734745,0.022997,-0.012099,-0.007894,left
-0.149755,0.618174,0.737002,0.037412,-0.01699,0.003432,left
-0.1647,0.472201,0.836737,0.021195,-0.018449,-0.021709,left
-0.167262,0.475617,0.833382,0.021023,-0.030719,0.003261,left
-0.16287,0.475251,0.833809,0.020422,-0.008066,0.007036,left
-0.160491,0.47763,0.831979,0.009782,-0.02334,-0.008838,left
-0.163541,0.478545,0.83265,0.031406,-0.026772,-0.00738,left
-0.165005,0.474824,0.833443,0.000343,-0.022396,-0.006264,left
-0.167872,0.47702,0.829417,0.036468,-0.034237,0.008238,left
-0.157258,0.478423,0.831796,0.015703,-0.042732,-0.006521,left
-0.166896,0.476715,0.834114,0.016046,-0.012356,-0.005921,left
-0.162687,0.483425,0.830088,0.020422,-0.018277,-0.011842,left
-0.157746,0.486597,0.830088,0.022396,-0.019221,-0.002917,left
-0.155245,0.484645,0.831003,0.018363,-0.018277,-0.003261,left
-0.155245,0.487512,0.829905,0.031406,-0.019908,-0.00103,left
-0.153537,0.488,0.828685,0.023082,-0.020594,-0.004719,left
-0.155794,0.487878,0.830576,0.029861,-0.021195,-0.004376,left
-0.152927,0.487756,0.829051,0.028059,-0.025399,-0.00695,left
-0.150914,0.489586,0.825391,0.054574,-0.055346,0.018277,left
-0.163785,0.482022,0.834236,0.016218,-0.005148,-0.000429,left
-0.155306,0.487939,0.829295,0.026686,-0.026858,-0.004805,left
-0.156465,0.487268,0.830454,0.023683,-0.019908,-0.004891,left
-0.105469,0.364902,0.89914,0.009696,-0.02128,-0.007723,left
-0.10492,0.370575,0.895907,0.015531,-0.026343,-0.005749,left
-0.104188,0.373808,0.89609,0.019478,-0.042818,-0.005148,left
-0.103517,0.375882,0.894992,0.020508,-0.042046,-0.006178,left
-0.103761,0.376858,0.892796,0.011327,-0.019736,-0.004119,left
-0.100406,0.378139,0.893467,0.023168,-0.018535,-0.004719,left
-0.102053,0.38186,0.891942,0.027373,-0.001201,-0.004205,left
-0.100467,0.382287,0.892247,0.036554,-0.047109,-0.011069,left
-0.103578,0.379359,0.892857,0.020766,-0.028403,-0.006178,left
-0.106018,0.380945,0.892796,0.027201,-0.025399,-0.003861,left
-0.125355,0.69723,0.667157,0.026772,-0.022997,-0.007637,left
-0.124257,0.697901,0.666242,0.026429,-0.025399,-0.006264,left
-0.122488,0.697718,0.666791,0.029089,-0.027973,-0.006007,left
-0.124318,0.698084,0.666608,0.029175,-0.020851,-0.003175,left
-0.121756,0.700829,0.663375,0.063326,-0.047366,-0.007465,left
-0.126575,0.692533,0.671427,0.011069,-0.020079,-0.012099,left
-0.123586,0.695461,0.668377,0.03398,-0.027802,-0.00429,left
-0.127246,0.6954,0.669353,0.020937,-0.000686,-0.008667,left
-0.124379,0.694119,0.670939,0.016818,-0.011498,-0.008066,left
-0.122549,0.696681,0.669231,0.011327,-0.010211,-0.009868,left
-0.113948,0.706075,0.660264,0.022053,-0.020251,-0.005663,left
-0.114436,0.707295,0.658739,0.030033,-0.025914,-0.005921,left
-0.113826,0.706624,0.658556,0.030204,-0.028574,-0.008667,left
-0.114924,0.70577,0.659166,0.042904,-0.018706,-0.006693,left
-0.112484,0.70699,0.658068,0.030462,-0.026858,-0.00695,left
-0.11285,0.707173,0.658007,0.024198,-0.022997,-0.007036,left
-0.115046,0.706502,0.657824,0.019564,-0.02437,-0.008152,left
-0.113277,0.70699,0.658129,0.024112,-0.023683,-0.006779,left
-0.114863,0.708088,0.656543,0.027973,-0.02334,-0.006264,left
-0.114985,0.706685,0.657824,0.030548,-0.026772,0.021023,left
-0.137616,0.827892,0.497577,0.02763,-0.026858,-0.006693,left
-0.136701,0.82716,0.498553,0.019908,-0.043676,-0.005492,left
-0.136152,0.829539,0.496052,0.027802,-0.025657,-0.004634,left
-0.134078,0.829356,0.496052,0.027544,-0.029003,-0.012442,left
-0.1342,0.828807,0.496662,0.026772,-0.023426,-0.006521,left
-0.135054,0.829661,0.495442,0.029861,-0.02128,-0.00369,left
-0.132797,0.827953,0.497638,0.024799,-0.019908,-0.006007,left
-0.135542,0.826794,0.499041,0.01802,-0.011412,-0.003518,left
-0.136152,0.827465,0.498492,0.02231,-0.0133,-0.009439,left
-0.133163,0.812032,0.498492,0.022482,-0.001716,-0.008238,left
-0.152195,0.905789,0.338306,0.02866,-0.019564,-0.004805,left
-0.152561,0.90524,0.339587,0.028488,-0.01965,-0.005921,left
-0.149938,0.906582,0.337635,0.032607,-0.043591,0.001201,left
-0.151524,0.904691,0.340258,0.017505,-0.016733,-0.009525,left
-0.149511,0.905545,0.340197,0.029861,-0.013815,-0.00266,left
-0.149938,0.905057,0.341417,0.029261,-0.008238,-0.010554,left
-0.146095,0.904813,0.342637,0.035696,-0.020508,-0.010469,left
-0.143716,0.90463,0.344101,0.024884,-0.023426,-0.010211,left
-0.143411,0.90463,0.344284,0.025571,-0.013043,-0.003347,left
-0.143167,0.903166,0.345992,0.016561,-0.043591,-0.023769,left
-0.11468,0.731878,0.628605,0.016647,-0.010726,-0.012271,left
-0.116937,0.734074,0.630496,0.01167,-0.020422,-0.012271,left
-0.113338,0.735904,0.629032,0.033465,-0.025657,-0.021538,left
-0.11468,0.734623,0.628849,0.026515,-0.017162,-0.001802,left
-0.114558,0.734013,0.629825,0.00798,-0.013644,-0.008495,left
-0.113094,0.737734,0.626653,0.034495,-0.034667,0.003175,left
-0.115046,0.736941,0.627629,0.019393,-0.019564,-0.003518,left
-0.116266,0.749324,0.630374,-0.010812,0.00635,-0.017762,left
-0.109373,0.73932,0.623481,0.034495,-0.003261,0.002403,left
-0.108946,0.739747,0.623664,0.028317,-0.032521,-0.00635,left
-0.092415,0.59475,0.766282,-0.013214,-0.017934,-0.009611,left
-0.091317,0.600667,0.761951,0.015531,-0.018964,-0.007036,left
-0.090219,0.603717,0.758901,0.023254,-0.025228,-0.006607,left
-0.090524,0.602558,0.759755,0.027973,-0.031063,-0.005921,left
-0.091988,0.603412,0.759511,0.019393,-0.018878,-0.006607,left
-0.090341,0.604754,0.758352,0.013558,-0.000772,-0.010469,left
-0.088755,0.60573,0.757742,0.017333,-0.018964,-0.00266,left
-0.086437,0.608719,0.755851,0.028145,-0.031234,-0.00532,left
-0.086437,0.608048,0.756278,0.021709,-0.028917,-0.008238,left
-0.088694,0.608658,0.755729,0.017848,-0.016647,-0.006865,left
-0.124684,0.518195,0.8174,0.013987,-0.017419,-0.005835,left
-0.121756,0.520879,0.81557,0.023254,-0.026257,-0.004548,left
-0.121695,0.520574,0.815204,0.01862,-0.026772,-0.008667,left
-0.120719,0.524051,0.813008,0.016389,-0.019993,-0.005835,left
-0.119377,0.524722,0.812215,0.012013,-0.017419,-0.003604,left
-0.118218,0.526369,0.810812,0.020508,-0.016561,-0.001974,left
-0.116388,0.52887,0.809836,0.01862,-0.027802,-0.007809,left
-0.118401,0.528321,0.809775,-0.00103,-0.01167,-0.017076,left
-0.113582,0.532469,0.807091,0.003861,-0.011584,-0.010812,left
-0.112362,0.535763,0.804529,0.013987,-0.018106,-0.002403,left
-0.101626,0.558882,0.788852,0.03029,-0.026,-0.001888,left
-0.10004,0.559187,0.788608,0.026944,-0.024884,-0.001802,left
-0.101626,0.557601,0.789279,0.019221,-0.017848,-0.001373,left
-0.101626,0.55754,0.789706,0.000944,-0.020766,-0.001802,left
-0.102114,0.55876,0.789279,0.029518,-0.022997,0.000343,left
-0.100894,0.558882,0.789401,0.023082,-0.020851,-0.004205,left
-0.102114,0.558699,0.78934,0.024884,-0.01862,-0.004977,left
-0.101931,0.558516,0.789828,0.017676,-0.019822,-0.005492,left
-0.098515,0.561627,0.78812,0.029003,-0.032693,-0.005148,left
-0.099857,0.561017,0.788242,0.019049,-0.021795,-0.006178,left
-0.107177,0.751703,0.607987,0.003175,-0.021195,-0.009696,left
-0.104554,0.755119,0.60573,0.031406,-0.020251,-0.004462,left
-0.105896,0.752557,0.607194,0.025657,-0.02437,-0.009267,left
-0.105164,0.753228,0.607438,0.039815,-0.028059,-0.021795,left
-0.104981,0.752496,0.608414,0.023683,-0.029003,-0.004891,left
-0.104615,0.752496,0.608414,0.018106,-0.017848,-0.004805,left
-0.105469,0.753411,0.60756,0.024455,-0.000429,-0.001802,left
-0.104249,0.753655,0.607133,0.024455,-0.030462,-0.007894,left
-0.104554,0.752679,0.607865,0.012614,-0.025742,-0.010726,left
-0.102724,0.756339,0.604327,0.039214,-0.035181,0.002574,left
-0.094794,0.847107,0.475617,0.049426,-0.03561,0.011842,left
-0.098942,0.845033,0.478606,0.041531,-0.000172,-0.003947,left
-0.098515,0.844423,0.481961,0.061439,-0.034581,-0.002231,left
-0.101443,0.837408,0.488122,0.022653,-0.018535,0.000257,left
-0.094977,0.838872,0.487878,0.074052,-0.012185,0.004462,left
-0.106201,0.824171,0.504897,0.003261,-0.001716,-0.017247,left
-0.098393,0.830576,0.5002,0.032779,-0.031663,0.00103,left
-0.099918,0.829539,0.501542,0.020337,-0.00103,-0.007294,left
-0.098637,0.829966,0.501298,0.022825,-0.023082,-0.007637,left
-0.096746,0.832406,0.499041,0.035696,-0.031148,-0.003861,left
-0.091195,0.828868,0.505507,0.030805,-0.028059,-0.00266,left
-0.0915,0.828685,0.505873,0.028231,-0.024799,-0.004462,left
-0.092476,0.827648,0.506971,0.022224,-0.021795,-0.004719,left
-0.091927,0.828258,0.505812,0.022396,-0.028403,-0.007894,left
-0.090951,0.828746,0.505385,0.026086,-0.023082,-0.002317,left
-0.091744,0.828136,0.505629,0,-0.043848,-0.004119,left
-0.090768,0.829295,0.504775,0.026858,-0.026515,-0.006007,left
-0.0915,0.829112,0.504775,0.02334,-0.020508,-0.008924,left
-0.09028,0.829051,0.505873,0.01862,-0.018363,-0.00738,left
-0.091012,0.8296,0.505141,0.025313,-0.019307,-0.00266,left
-0.102236,-0.428586,0.891149,0.030719,-0.000429,-0.005406,right
-0.102724,-0.42761,0.890722,0.027115,-0.022568,-0.006007,right
-0.102968,-0.427122,0.891149,0.026343,-0.023168,-0.006436,right
-0.10248,-0.427427,0.890783,0.02969,-0.022139,-0.006607,right
-0.103334,-0.42944,0.892308,0.030805,-0.021195,-0.007122,right
-0.103029,-0.428403,0.891576,0.029861,-0.03398,-0.014845,right
-0.105469,-0.430294,0.88999,0.082462,-0.020422,-0.024112,right
-0.104615,-0.431575,0.889624,0.033637,-0.025313,-0.004462,right
-0.101382,-0.433527,0.890112,0.01699,-0.063584,-0.029775,right
-0.107238,-0.429623,0.889441,0.026772,-0.024026,-0.004634,right
-0.120902,-0.699487,0.702598,0.043247,-0.021795,-0.006779,right
-0.12261,-0.703391,0.70455,0.022911,-0.027115,-0.011584,right
-0.124257,-0.702842,0.70516,0.01862,-0.031663,-0.01536,right
-0.127246,-0.704428,0.70638,0.008066,-0.043505,-0.030719,right
-0.130113,-0.699243,0.706685,0.006521,-0.03561,-0.01433,right
-0.134078,-0.69601,0.70699,0.025657,-0.031406,-0.010983,right
-0.133834,-0.694912,0.708576,0.017076,-0.023683,-0.005406,right
-0.135359,-0.695583,0.707966,0.024284,-0.024455,-0.003089,right
-0.136518,-0.696742,0.708881,0.023426,-0.000086,0.020508,right
-0.134566,-0.695766,0.709064,0.023683,-0.025485,-0.006007,right
-0.152683,-0.773541,0.620004,0.01802,-0.029175,-0.021967,right
-0.157319,-0.772504,0.62464,-0.07062,-0.03501,0.014845,right
-0.1586,-0.766526,0.628666,0.035439,-0.024284,-0.016046,right
-0.159088,-0.764391,0.630984,0.015274,-0.030462,-0.008752,right
-0.160308,-0.762195,0.633058,-0.006607,-0.03295,-0.008495,right
-0.160369,-0.760365,0.637694,0.026772,-0.025571,-0.01064,right
-0.163358,-0.759877,0.637572,0.029947,-0.026944,-0.007809,right
-0.161894,-0.763476,0.640378,-0.005406,-0.043762,0.034237,right
-0.161711,-0.751337,0.639524,0.023769,-0.025742,-0.022997,right
-0.16104,-0.751703,0.6405,0.052515,-0.029175,-0.026086,right
-0.180194,-0.834724,0.531188,-0.01064,-0.026601,0.00532,right
-0.176778,-0.831186,0.535946,0.01167,-0.026686,-0.000086,right
-0.178669,-0.831491,0.537593,0.019736,-0.020508,-0.006007,right
-0.179584,-0.829844,0.538142,0.032264,-0.019564,-0.00429,right
-0.177815,-0.830576,0.538386,0.030634,-0.020422,-0.005492,right
-0.179889,-0.829661,0.537166,0.025056,-0.027802,-0.030376,right
-0.182573,-0.833199,0.534848,0.017076,-0.035954,0.011155,right
-0.168055,-0.831979,0.535702,0.052858,-0.0653,-0.038957,right
-0.183,-0.833504,0.532225,-0.101339,-0.027201,-0.02703,right
-0.183061,-0.825391,0.549488,0.027802,-0.015789,-0.005148,right
-0.165676,-0.602131,0.780434,0.026601,-0.020766,-0.002488,right
-0.164883,-0.601765,0.780617,0.028917,-0.025142,-0.008752,right
-0.165432,-0.602009,0.780678,0.023683,-0.042046,-0.003261,right
-0.164578,-0.602497,0.780739,0.028059,-0.02128,-0.005663,right
-0.165249,-0.602863,0.780617,0.031577,-0.020337,-0.002574,right
-0.163663,-0.603778,0.779275,0.027544,-0.023426,-0.004119,right
-0.162565,-0.604022,0.779153,0.030119,-0.02394,-0.007465,right
-0.164639,-0.605425,0.779092,0.030376,-0.023597,-0.005749,right
-0.163541,-0.60573,0.779153,0.022396,-0.023168,-0.007551,right
-0.16409,-0.605181,0.778604,0.039043,-0.03029,-0.018706,right
-0.14335,-0.479765,0.860771,0.03132,-0.022568,-0.004977,right
-0.144082,-0.480985,0.859856,0.029947,-0.024884,-0.008066,right
-0.142801,-0.480375,0.858575,0.029775,-0.029261,-0.01064,right
-0.14335,-0.480314,0.859124,0.026171,-0.027373,-0.00695,right
-0.143838,-0.479216,0.859551,0.027973,-0.029432,-0.009096,right
-0.145058,-0.479704,0.860283,0.001545,-0.026515,-0.00695,right
-0.146522,-0.4819,0.8601,0.058607,-0.008838,-0.031148,right
-0.144814,-0.48007,0.858148,0.020937,-0.043934,-0.003604,right
-0.144631,-0.48007,0.858087,0.034323,-0.025742,-0.001545,right
-0.144143,-0.481717,0.859124,0.02231,-0.025056,-0.009611,right
-0.160674,-0.661789,0.733342,0.021624,-0.016475,-0.007894,right
-0.160735,-0.661667,0.718336,0.019993,-0.026772,-0.016904,right
-0.163541,-0.660691,0.734196,0.017505,-0.025056,-0.013815,right
-0.162321,-0.657946,0.735233,0.008495,-0.011756,-0.009439,right
-0.162504,-0.657275,0.739503,0.015102,-0.000257,-0.012099,right
-0.160918,-0.655445,0.738222,0.015102,-0.019908,-0.010211,right
-0.162016,-0.653859,0.739564,0.017505,-0.020766,-0.004719,right
-0.161467,-0.652151,0.74054,0.020937,-0.022568,-0.014502,right
-0.162809,-0.651602,0.741638,0.019393,-0.026086,-0.009525,right
-0.164517,-0.650809,0.74237,0.00901,-0.016389,-0.009181,right
-0.162443,-0.506727,0.83814,0.000429,-0.028317,-0.008066,right
-0.162931,-0.506422,0.838567,0.028574,-0.025571,-0.007294,right
-0.164517,-0.506239,0.838445,0.024284,-0.028317,-0.012013,right
-0.164761,-0.505812,0.838689,0.024112,-0.029003,-0.013815,right
-0.166286,-0.505934,0.838933,0.022139,-0.026601,-0.00738,right
-0.166652,-0.505141,0.838994,0.027544,-0.027201,-0.009181,right
-0.167079,-0.50508,0.840031,0.020851,-0.012957,-0.00635,right
-0.16714,-0.504348,0.83936,0.03132,-0.023082,-0.008152,right
-0.167079,-0.504531,0.840702,0.030204,-0.024455,-0.008152,right
-0.168299,-0.505751,0.841129,0.02334,-0.021109,-0.002403,right
-0.168604,-0.407236,0.890417,0.023769,-0.023426,-0.007551,right
-0.169885,-0.407053,0.890783,0.017676,-0.023769,-0.00532,right
-0.166835,-0.406565,0.8906,0.02866,-0.025142,-0.009696,right
-0.16836,-0.408639,0.890356,0.026515,-0.026,-0.003861,right
-0.167079,-0.410286,0.889624,0.025828,-0.029518,-0.007122,right
-0.16775,-0.408029,0.889563,0.030634,-0.043591,-0.004548,right
-0.16531,-0.404186,0.884439,0.014416,-0.059551,-0.027973,right
-0.168787,-0.408212,0.88938,0.027115,-0.024198,-0.003518,right
-0.167445,-0.409432,0.889014,0.02866,-0.028746,-0.008667,right
-0.170373,-0.409005,0.888587,0.019307,-0.023855,-0.000858,right
-0.171288,-0.682407,0.714066,0.016132,-0.022997,-0.007551,right
-0.16775,-0.681004,0.715225,-0.004119,-0.032521,-0.027802,right
-0.175314,-0.677588,0.717665,0.003261,-0.021967,-0.002403,right
-0.172691,-0.674233,0.719251,0.021195,-0.022568,-0.008752,right
-0.171837,-0.674233,0.719861,0.019908,-0.029947,-0.01167,right
-0.172569,-0.672708,0.721691,0.014073,-0.024541,-0.003432,right
-0.170983,-0.671671,0.721996,0.023597,-0.023511,-0.005663,right
-0.170983,-0.67039,0.722789,0.028145,-0.030634,-0.013729,right
-0.172508,-0.670146,0.723338,0.030462,-0.027716,-0.011412,right
-0.172935,-0.669658,0.724497,0.029775,-0.026,-0.009439,right
-0.153476,-0.596763,0.785009,0.011927,-0.019393,-0.00635,right
-0.137616,-0.599264,0.785436,-0.166039,0.044277,-0.066416,right
-0.129564,-0.483547,0.780434,-2.70313,0.710492,0.457186,right
-0.024461,-0.317932,0.896944,-0.379787,0.129914,-0.303332,right
-0.085156,-0.202459,0.9638,-0.408275,0.198131,-0.030204,right
-0.072834,-0.080215,1.003084,-0.051657,-0.087782,0.036726,right
-0.046909,-0.083692,0.978013,0.054231,-0.014673,0.008323,right
-0.063745,-0.09638,0.998265,0.463965,-0.170844,0.014587,right
-0.044835,-0.180804,0.945073,0.019822,-0.056633,-0.013386,right
-0.05185,-0.189954,0.954406,0.051485,-0.043247,-0.004376,right
-0.125355,-0.657336,0.743285,0.043076,-0.020508,-0.003861,right
-0.124928,-0.65575,0.74359,0.003776,-0.039901,-0.013987,right
-0.128771,-0.652273,0.744871,0.027973,-0.019135,-0.001888,right
-0.128588,-0.651602,0.746823,0.030204,-0.02068,-0.007294,right
-0.133773,-0.653066,0.745603,0.014759,-0.014587,0.021795,right
-0.127673,-0.652395,0.74725,0.027544,-0.022139,-0.003947,right
-0.128832,-0.652273,0.747006,0.019393,-0.028917,-0.009353,right
-0.126392,-0.650016,0.745542,0.029089,-0.036297,-0.027888,right
-0.13115,-0.654408,0.744566,0.023683,-0.029518,0.001201,right
-0.129625,-0.654408,0.743895,0.030548,-0.023855,-0.006092,right
-0.141337,-0.652578,0.745054,0.026171,-0.018363,-0.021881,right
-0.140544,-0.652578,0.745298,0.029518,-0.025228,-0.001888,right
-0.143472,-0.651663,0.745725,0.017676,-0.017762,0.006607,right
-0.138287,-0.651663,0.745786,0.027287,-0.024799,-0.006693,right
-0.139995,-0.650931,0.74725,0.030634,-0.024026,-0.003432,right
-0.140178,-0.650138,0.746884,0.023855,-0.028574,-0.01004,right
-0.140422,-0.650321,0.746457,0.026343,-0.026772,-0.005406,right
-0.141398,-0.65087,0.746396,0.029861,-0.02703,-0.001888,right
-0.141703,-0.650626,0.745603,0.026171,-0.023254,-0.008838,right
-0.143106,-0.651053,0.74542,0.026858,-0.026686,-0.00695,right
-0.168055,-0.792512,0.592676,0.026343,-0.024284,-0.010726,right
-0.170495,-0.793305,0.592371,0.017676,-0.019393,-0.00532,right
-0.171715,-0.793732,0.592127,-0.00369,-0.012614,-0.006178,right
-0.168116,-0.790499,0.594994,0.043591,-0.017162,-0.001459,right
-0.168177,-0.789462,0.596702,0.029175,-0.000858,-0.002059,right
-0.168055,-0.788547,0.596458,0.017333,-0.038957,-0.015703,right
-0.166408,-0.78751,0.599447,0.037069,-0.025399,-0.010297,right
-0.167506,-0.787937,0.600118,0.026429,-0.025056,-0.003003,right
-0.165981,-0.786656,0.599569,0.029775,-0.027802,-0.009267,right
-0.166042,-0.786778,0.597129,-0.001116,-0.015102,-0.01596,right
-0.175924,-0.784948,0.600972,0.023511,-0.019993,-0.004719,right
-0.176168,-0.784826,0.60085,0.034066,-0.037756,-0.030634,right
-0.180255,-0.78507,0.597861,0.024627,-0.020422,0.021109,right
-0.179889,-0.78446,0.598471,0.026858,-0.022653,-0.005063,right
-0.179218,-0.784338,0.597922,0.024884,-0.027201,-0.010726,right
-0.179584,-0.78446,0.599081,0.027459,-0.027888,-0.010383,right
-0.18056,-0.784094,0.598227,0.000686,-0.026429,-0.008924,right
-0.180865,-0.783789,0.598654,0.020937,-0.031492,-0.003776,right
-0.180987,-0.783118,0.599691,0.020508,-0.026772,-0.013472,right
-0.183183,-0.782569,0.60085,0.024112,-0.021195,-0.005663,right
-0.201727,-0.880047,0.446825,0.000601,-0.000086,-0.008581,right
-0.200934,-0.879742,0.447435,0.011927,-0.024799,-0.01802,right
-0.203496,-0.877729,0.449448,0.027973,-0.026343,-0.010898,right
-0.204167,-0.877912,0.449509,0.02394,-0.00163,-0.003175,right
-0.202642,-0.876875,0.450607,0.031749,-0.023855,-0.008838,right
-0.206241,-0.877729,0.449875,0.021538,-0.023426,0.001116,right
-0.20496,-0.877119,0.452559,0.015617,-0.020766,-0.004634,right
-0.204472,-0.87596,0.45262,0.019393,-0.023597,-0.013987,right
-0.20618,-0.876143,0.452498,0.016475,-0.023426,-0.009353,right
-0.207156,-0.875411,0.45384,0.024112,-0.025399,-0.002832,right
-0.131516,-0.639585,0.753655,0.050284,-0.022911,0.000172,right
-0.132004,-0.641659,0.750849,0.025056,-0.026686,-0.011927,right
-0.133041,-0.642147,0.750544,0.034066,-0.043676,-0.003432,right
-0.132675,-0.644038,0.74908,0.061353,-0.020251,-0.00901,right
-0.133285,-0.647637,0.747372,0.028059,-0.029261,-0.011756,right
-0.133834,-0.648369,0.745725,0.040931,-0.029175,-0.009267,right
-0.135054,-0.64965,0.745603,0.036812,-0.026601,-0.002917,right
-0.135237,-0.651053,0.745054,0.026343,-0.02763,-0.008409,right
-0.136335,-0.65148,0.744566,0.022653,-0.031835,-0.010726,right
-0.137311,-0.650138,0.743895,0.022739,-0.027716,-0.006264,right
-0.065941,-0.548573,0.825208,0.026429,-0.02763,-0.010726,right
-0.06588,-0.549122,0.824232,0.027802,-0.025056,-0.008409,right
-0.067527,-0.548817,0.823988,0.026171,-0.028746,-0.011498,right
-0.069906,-0.549061,0.823683,0.049254,-0.031148,-0.026515,right
-0.06771,-0.54839,0.823378,0.024284,-0.031577,-0.010554,right
-0.069418,-0.550281,0.823927,0.015016,-0.029861,-0.011327,right
-0.07015,-0.548634,0.822707,0.043505,-0.02703,-0.010812,right
-0.071614,-0.548024,0.8235,0.019135,-0.030805,-0.010383,right
-0.073322,-0.547902,0.825208,0.032693,-0.020851,-0.00695,right
-0.073444,-0.547536,0.825757,0.031406,-0.020508,-0.004634,right
-0.067039,-0.859917,0.515816,0.009782,-0.02128,-0.010812,right
-0.067222,-0.85949,0.515877,0.020079,-0.023511,-0.003261,right
-0.06771,-0.859734,0.515755,0.027287,-0.018964,-0.006436,right
-0.067222,-0.859429,0.515755,0.02394,-0.024284,-0.003261,right
-0.065636,-0.858392,0.516731,0.023769,-0.026086,-0.006007,right
-0.066856,-0.858209,0.517829,0.024455,-0.025828,-0.010297,right
-0.066673,-0.858331,0.517585,0.017591,-0.026686,-0.00532,right
-0.067161,-0.857965,0.518744,0.027201,-0.025056,-0.007809,right
-0.067771,-0.858087,0.51911,0.03029,-0.024541,-0.007723,right
-0.068991,-0.857904,0.519293,0.024799,-0.000601,-0.005406,right
-0.085278,-0.933117,0.372527,0.027716,-0.031921,-0.012871,right
-0.085644,-0.932995,0.371917,0.024284,-0.028231,-0.01433,right
-0.088755,-0.933239,0.371795,0.028917,-0.022911,-0.008581,right
-0.090829,-0.932446,0.37271,0.028574,-0.021538,-0.00103,right
-0.089853,-0.933666,0.372527,0.018964,-0.023855,-0.014587,right
-0.089914,-0.932202,0.374113,0.017762,-0.027973,-0.029518,right
-0.092903,-0.932263,0.373808,0.043848,-0.02497,-0.008152,right
-0.109251,-0.93086,0.376492,0.024713,-0.02497,-0.009353,right
-0.093269,-0.93086,0.377407,0.020508,-0.030119,-0.029861,right
-0.097417,-0.930616,0.376309,0.012185,-0.028231,-0.014845,right
