acc_x,acc_y,acc_z,gyro_x,gyro_y,gyro_z,direction
0.51911,0.015921,0.818986,0.027973,-0.035868,-0.007637,up
0.517585,0.019947,0.821182,0.023254,-0.020594,-0.007208,up
0.517341,0.019459,0.822585,0.043076,-0.026858,-0.004462,up
0.517524,0.020923,0.823622,0.029261,-0.023254,-0.010211,up
0.516792,0.019825,0.822219,0.036812,-0.035525,-0.008409,up
0.516121,0.020984,0.822585,0.022568,-0.009096,-0.003861,up
0.516365,0.017873,0.81984,0.019135,-0.026515,-0.005063,up
0.5185,0.021167,0.822951,0.027115,-0.022911,-0.00695,up
0.514962,0.021777,0.825574,0.028231,-0.020937,-0.008066,up
0.51667,0.018117,0.821365,0.017247,-0.027373,-0.002832,up
0.668926,-0.003111,0.705221,0.025914,-0.019564,-0.006693,up
0.670085,-0.003477,0.704245,0.027716,-0.031835,-0.005663,up
0.667584,-0.003843,0.705465,0.026944,-0.028917,-0.003861,up
0.665266,-0.003355,0.706197,0.024541,-0.01536,-0.001802,up
0.668926,-0.003416,0.704733,0.027544,-0.021452,-0.005921,up
0.668682,-0.003416,0.706319,0.024713,-0.028145,-0.008581,up
0.667157,-0.004087,0.704306,0.022911,-0.030634,-0.008238,up
0.665815,-0.003904,0.705343,0.025914,-0.025056,-0.007551,up
0.665815,-0.003843,0.704855,0.027888,-0.02703,-0.004805,up
0.665266,-0.003355,0.709186,0.029175,-0.018449,-0.006436,up
0.667279,-0.00427,0.704611,0.02763,-0.023511,-0.005921,up
0.66856,-0.001586,0.706197,0.031663,-0.018878,-0.007465,up
0.66795,-0.005795,0.708942,0.021881,-0.01596,-0.008752,up
0.668743,-0.002928,0.718153,0.027459,-0.022739,-0.006007,up
0.667645,-0.006161,0.706746,0.025142,-0.01596,-0.005148,up
0.669719,-0.004514,0.702415,0.027115,-0.027459,-0.006092,up
0.668499,-0.004941,0.702903,0.026,-0.031492,-0.007809,up
0.668865,-0.004148,0.704611,0.033208,-0.029861,-0.005578,up
0.668926,-0.003172,0.707966,0.03029,-0.021452,-0.008667,up
0.667889,-0.001891,0.705709,0.030719,-0.001888,-0.004033,up
0.750605,-0.008845,0.612867,0.021452,-0.045135,-0.007551,up
0.751459,-0.007564,0.61671,0.025571,-0.02703,-0.012957,up
0.749263,-0.00732,0.61488,0.025657,-0.029089,-0.008667,up
0.750056,-0.008113,0.615551,0.017676,-0.022653,-0.007122,up
0.749934,-0.00549,0.616161,0.02068,-0.019221,-0.006693,up
0.750422,-0.00488,0.615124,0.022224,-0.019049,-0.006264,up
0.750544,-0.006466,0.613904,0.020079,-0.043247,-0.005663,up
0.749934,-0.005063,0.612806,0.025828,-0.043505,-0.004548,up
0.752252,-0.003721,0.61427,0.01536,-0.018706,-0.011927,up
0.750239,-0.006344,0.61305,0.020851,-0.023597,-0.006092,up
0.747799,-0.003843,0.619455,0.024884,-0.020251,-0.007465,up
0.7503,-0.005246,0.618601,0.031406,-0.01862,-0.00738,up
0.748043,-0.005002,0.613599,0.002403,-0.027716,-0.00429,up
0.749446,-0.005856,0.617381,0.022911,-0.023511,-0.003947,up
0.748714,-0.005307,0.619455,0.025313,-0.016475,-0.00635,up
0.747494,-0.005612,0.616954,0.023855,-0.026,-0.003604,up
0.748531,-0.006893,0.619089,0.019736,-0.016046,-0.006007,up
0.748226,-0.004941,0.62037,0.026343,-0.000172,-0.007809,up
0.749324,-0.005063,0.616466,0.029947,-0.022825,-0.012185,up
0.748836,-0.004697,0.619577,0.020337,-0.016818,-0.006436,up
0.839604,-0.011163,0.488305,0.026257,-0.017591,-0.005835,up
0.838933,-0.011468,0.484462,0.026686,-0.030548,-0.007036,up
0.839177,-0.011285,0.491233,0.030891,-0.029775,-0.006865,up
0.837957,-0.012078,0.491538,0.02334,-0.017676,-0.004891,up
0.838933,-0.011407,0.490257,0.030548,-0.026343,-0.006779,up
0.838445,-0.012932,0.4941,0.03029,-0.043762,-0.008066,up
0.83692,-0.012688,0.489891,0.024884,-0.01699,-0.006521,up
0.839726,-0.012261,0.493124,0.028488,-0.01802,-0.005921,up
0.838567,-0.013054,0.490318,0.026772,-0.021366,-0.00635,up
0.839055,-0.01281,0.487207,0.000257,-0.031063,-0.005835,up
0.680211,-0.013115,0.69601,0.015016,-0.034066,-0.013043,up
0.679418,-0.011895,0.693631,0.024026,-0.043162,-0.008838,up
0.679723,-0.011773,0.696315,0.024627,-0.019736,-0.012528,up
0.684786,-0.006283,0.691191,0.05732,-0.033294,-0.003518,up
0.675148,-0.020435,0.695522,0.002317,-0.015188,-0.007036,up
0.677954,-0.01769,0.689971,0.019822,-0.019908,-0.003947,up
0.682346,-0.008357,0.69479,0.048482,-0.00266,-0.013043,up
0.682468,-0.013115,0.693814,0.046422,-0.029861,-0.008323,up
0.682102,-0.016287,0.696193,0.024541,-0.000086,-0.007894,up
0.682407,-0.0183,0.694363,0.022653,-0.043591,-0.011155,up
0.681492,-0.015433,0.696315,0.032865,-0.025399,-0.00635,up
0.681431,-0.016165,0.692289,0.030033,-0.025914,-0.004805,up
0.681187,-0.014884,0.693692,0.033808,-0.019908,-0.001459,up
0.681919,-0.015616,0.692106,0.031148,-0.030119,-0.003432,up
0.680943,-0.015311,0.696254,0.032092,-0.001459,-0.00695,up
0.680272,-0.015128,0.693692,0.029604,-0.03132,-0.009353,up
0.679784,-0.015494,0.694119,0.031234,-0.027544,-0.008409,up
0.678747,-0.014396,0.69845,0.033122,-0.019564,-0.008066,up
0.679296,-0.015982,0.688873,0.014759,-0.030719,-0.005492,up
0.677039,-0.01769,0.699182,0.038442,-0.049168,-0.015274,up
0.528687,-0.007625,0.816485,0.022825,-0.050284,-0.011327,up
0.523624,-0.005795,0.818803,0.035181,-0.012442,-0.00695,up
0.52521,-0.005856,0.819047,0.033208,-0.000172,-0.008495,up
0.530395,-0.007564,0.813191,0.02969,-0.003432,-0.004376,up
0.531432,-0.008296,0.817034,0.02128,-0.017505,-0.008752,up
0.533567,-0.00854,0.796477,0.026171,-0.024627,-0.011412,up
0.533933,-0.00671,0.812642,0.030204,0.005234,0.000515,up
0.534543,-0.011163,0.810629,0.025742,-0.036468,-0.015617,up
0.538996,-0.008662,0.810568,0.028403,-0.018363,-0.008238,up
0.536007,-0.010614,0.809531,0.029861,-0.042904,-0.004205,up
0.680699,-0.023424,0.698511,0.028574,-0.019908,-0.007465,up
0.681248,-0.024522,0.696559,0.029775,-0.023855,-0.00532,up
0.682041,-0.024339,0.695095,0.027973,-0.026,-0.006779,up
0.681248,-0.023729,0.696986,0.019908,-0.020165,-0.006436,up
0.682407,-0.023729,0.696681,0.019478,-0.05569,-0.004376,up
0.681004,-0.022448,0.696254,0.012957,-0.013901,0.001373,up
0.681553,-0.021655,0.695156,0.022911,-0.025485,0.002488,up
0.683261,-0.017263,0.691618,0.044963,-0.031492,-0.011069,up
0.6771,-0.025986,0.703879,0.000429,-0.016218,-0.010211,up
0.68137,-0.024522,0.692228,0.004634,-0.053544,-0.017505,up
0.68381,-0.014701,0.698816,0.015188,-0.018106,-0.008238,up
0.683078,-0.01891,0.671549,0.030376,-0.025571,-0.010297,up
0.684359,-0.014335,0.689849,0.033551,-0.001116,-0.00798,up
0.685091,-0.015067,0.689361,0.042218,-0.019307,-0.008581,up
0.682346,-0.013481,0.691069,0.039129,-0.001545,-0.007637,up
0.6893,-0.015555,0.680943,0.022911,-0.026,-0.011327,up
0.68808,-0.015616,0.692045,0.016733,-0.006607,-0.009868,up
0.688507,-0.016714,0.682224,0.01965,-0.022396,-0.009954,up
0.689788,-0.016348,0.682285,0.025828,-0.018277,-0.00695,up
0.689849,-0.014823,0.685152,0.021967,-0.016132,-0.009611,up
0.342515,0.002562,0.915244,0.033208,-0.0127,-0.003089,up
0.344467,0.001952,0.912194,0.025657,-0.011412,-0.005835,up
0.346846,0.002989,0.91134,0.033723,-0.017676,-0.004376,up
0.347029,0.002562,0.911889,0.035267,-0.017076,-0.004977,up
0.345931,0.000793,0.91134,0.029261,0.000429,-0.006007,up
0.350811,0.000122,0.911767,0.01965,-0.021452,-0.007637,up
0.352275,0.000244,0.909632,0.025485,-0.000429,-0.006436,up
0.351482,0.000549,0.912011,0.029175,-0.015016,-0.003518,up
0.352092,0.000305,0.910242,0.030204,-0.000944,-0.007294,up
0.353617,-0.000488,0.909266,0.023168,-0.028574,-0.007294,up
0.592249,-0.024827,0.77165,0.028145,-0.025914,-0.00532,up
0.592371,-0.024766,0.771894,0.023082,-0.025485,-0.007122,up
0.59231,-0.024827,0.769759,0.027373,-0.023855,-0.003604,up
0.590541,-0.027572,0.775615,0.029003,-0.025142,-0.007122,up
0.591456,-0.025498,0.775798,0.023168,-0.024026,-0.007208,up
0.591761,-0.022997,0.770308,0.025399,-0.023511,-0.004462,up
0.591212,-0.025864,0.773541,0.020851,-0.02763,-0.009696,up
0.590968,-0.023851,0.770674,0.027716,-0.030033,-0.009267,up
0.589199,-0.022997,0.774944,0.026772,-0.021624,-0.007637,up
0.58987,-0.022631,0.774639,0.027802,-0.025571,-0.007723,up
0.766892,-0.022814,0.597739,0.02969,-0.039214,-0.013558,up
0.76494,-0.023119,0.599142,0.041617,-0.022139,-0.009439,up
0.762195,-0.02501,0.602924,0.029175,-0.026772,-0.013472,up
0.761341,-0.027816,0.605303,0.025313,-0.028403,-0.008066,up
0.760243,-0.028609,0.603107,0.027802,-0.031492,-0.006693,up
0.759511,-0.027328,0.607377,0.034323,-0.031921,-0.007208,up
0.758291,-0.028304,0.608719,0.025313,-0.023769,-0.007122,up
0.757681,-0.028975,0.604327,0.029261,-0.032693,-0.006264,up
0.757864,-0.027389,0.607926,0.030033,-0.03235,-0.009611,up
0.757498,-0.02806,0.624579,0.027115,-0.025485,-0.008323,up
0.824781,-0.038491,0.514596,0.032865,-0.031749,-0.010983,up
0.825208,-0.038979,0.516792,0.023683,-0.031835,-0.004719,up
0.821792,-0.037271,0.513376,0.026257,-0.039815,-0.008152,up
0.820938,-0.038064,0.52155,0.032435,-0.025742,-0.007465,up
0.821426,-0.039101,0.519537,0.02497,-0.027459,-0.003861,up
0.820877,-0.039345,0.518927,0.027973,-0.028059,-0.005148,up
0.820816,-0.038613,0.522892,0.014845,-0.022482,-0.003003,up
0.820877,-0.035441,0.516731,0.041874,-0.040587,-0.006436,up
0.820572,-0.036478,0.522526,0.029861,-0.01965,-0.010211,up
0.820145,-0.036539,0.517646,0.027973,-0.034409,-0.009954,up
0.682773,-0.039589,0.692594,0.025313,-0.022053,-0.002059,up
0.68259,-0.040199,0.692289,0.020337,-0.021795,-0.012099,up
0.683505,-0.040199,0.693204,0.000429,-0.020937,-0.005492,up
0.683261,-0.040443,0.691069,0.016904,-0.01536,-0.007894,up
0.683505,-0.03843,0.692533,0.027973,-0.028832,-0.005921,up
0.684115,-0.038552,0.694607,0.029003,-0.023683,-0.006779,up
0.683505,-0.038979,0.693387,0.023597,-0.020766,-0.007036,up
0.682956,-0.039467,0.692167,0.008838,-0.043762,-0.010211,up
0.683627,-0.036905,0.697474,0.026601,-0.021795,-0.009611,up
0.682712,-0.038064,0.690825,0.031749,-0.029947,-0.004805,up
0.579744,-0.046177,0.782203,0.026772,-0.025571,-0.005148,up
0.580049,-0.046482,0.780556,0.026858,-0.016561,-0.005492,up
0.579866,-0.046299,0.781532,0.031749,-0.043591,-0.004205,up
0.579805,-0.047214,0.779031,0.030805,-0.024627,-0.003518,up
0.579439,-0.045933,0.785192,0.035439,-0.017419,-0.005663,up
0.581086,-0.046299,0.777628,0.029432,-0.030033,-0.005921,up
0.580598,-0.046116,0.779824,0.02969,-0.02497,-0.004119,up
0.581269,-0.046726,0.781288,0.024455,-0.029947,-0.00738,up
0.579561,-0.045872,0.781471,0.024112,-0.025228,-0.005148,up
0.580903,-0.045445,0.783301,0.021195,-0.029432,-0.008838,up
0.496845,-0.033001,0.838018,0.027459,-0.023683,-0.021967,up
0.496906,-0.031598,0.839238,0.027802,-0.027716,-0.00798,up
0.498004,-0.031415,0.836676,0.022139,-0.031234,-0.002403,up
0.496174,-0.030012,0.838872,0.028145,-0.029003,-0.003261,up
0.496296,-0.028792,0.838079,0.030462,-0.022997,-0.004977,up
0.495808,-0.030866,0.84302,0.02703,-0.043419,-0.007809,up
0.494893,-0.030866,0.835517,0.033294,-0.043419,-0.003347,up
0.493185,-0.030866,0.839482,0.035868,-0.02394,-0.005234,up
0.496418,-0.030012,0.840336,0.030462,-0.026,-0.003518,up
0.495869,-0.032574,0.84424,0.016818,-0.003518,-0.008066,up
0.459269,-0.026291,0.86376,0.026944,-0.03132,-0.008152,up
0.45506,-0.030378,0.863028,0.026858,-0.052515,-0.010898,up
0.450912,-0.031842,0.865956,0.025485,-0.071564,-0.013729,up
0.441335,-0.028243,0.869311,0.013214,-0.060838,-0.003175,up
0.435967,-0.028914,0.871263,0.034495,-0.020422,-0.005749,up
0.436333,-0.030195,0.871507,0.027459,-0.022739,-0.008752,up
0.437614,-0.030988,0.872605,0.021195,-0.022911,-0.000172,up
0.435601,-0.030622,0.871873,0.026171,-0.016904,-0.003089,up
0.435845,-0.028609,0.872483,0.029518,-0.016046,-0.00532,up
0.436638,-0.029585,0.873154,0.028403,-0.02394,-0.010383,up
0.676978,-0.002928,0.694729,0.019478,-0.034152,-0.007723,up
0.673257,-0.00549,0.69784,0.011327,-0.011412,-0.003518,up
0.672342,-0.01037,0.690703,-0.003347,-0.012356,0.001716,up
0.670695,0.007137,0.708515,0.038957,0.016046,-0.008152,up
0.673867,-0.004087,0.698816,0.034838,-0.021366,0.021195,up
0.676124,-0.00488,0.693692,0.017505,-0.002403,-0.021795,up
0.682163,0.007076,0.696986,0.042475,-0.004805,-0.007637,up
0.682102,0.002501,0.689056,0.04196,-0.080402,0.015188,up
0.689727,0.008479,0.688629,-0.002317,0.009696,-0.012442,up
0.689605,-0.000488,0.672525,-0.007551,-0.018706,-0.000858,up
-0.993507,-0.040565,0.126148,0.034838,-0.025399,0.002574,down
-0.993873,-0.040382,0.127246,0.035525,-0.05097,0.016904,down
-0.998082,-0.040443,0.123525,0.011584,-0.008495,-0.001459,down
-0.997167,-0.041297,0.122915,0.015016,-0.013472,0.020766,down
-0.993446,-0.041297,0.125721,0.01802,-0.025485,-0.009096,down
-0.990701,-0.044225,0.126331,-0.000601,-0.036125,-0.01965,down
-0.998265,-0.03904,0.121817,0.01699,-0.008581,0.001201,down
-0.998265,-0.038064,0.124135,0.042904,-0.019049,0.014416,down
-0.99552,-0.039162,0.125904,0.03767,-0.021109,0.013386,down
-0.994605,-0.040504,0.130418,0.052515,-0.019135,0.001545,down
-0.78934,-0.032513,0.60573,0.024713,-0.047967,-0.00266,down
-0.793976,-0.030195,0.603168,0.01064,-0.036554,0.001373,down
-0.795074,-0.0305,0.599752,0.019393,-0.000601,-0.003089,down
-0.793366,-0.029036,0.599264,0.019736,-0.030634,-0.00369,down
-0.794891,-0.028853,0.599081,0.007723,-0.027287,-0.007208,down
-0.796538,-0.028182,0.596031,0.034581,-0.026858,-0.001116,down
-0.783545,-0.032025,0.601277,0.020251,-0.108719,-0.026858,down
-0.800686,-0.02257,0.595177,0.012185,-0.008667,-0.016389,down
-0.798185,-0.023241,0.593164,0.014416,-0.014073,-0.006865,down
-0.79666,-0.026291,0.597495,0.069333,-0.088125,-0.003604,down
-0.551684,-0.014396,0.818132,0.01536,-0.037841,-0.018792,down
-0.552782,-0.014091,0.817705,0.028059,-0.060666,-0.024627,down
-0.557784,-0.010614,0.813435,0.008495,-0.054402,-0.022224,down
-0.566812,-0.012444,0.810995,0.044963,-0.044792,0.00369,down
-0.567849,-0.013664,0.812642,0.014759,-0.095075,-0.012785,down
-0.570594,-0.018605,0.800442,0.069848,-0.012271,-0.056204,down
-0.586759,-0.026352,0.799222,0.049769,-0.094818,-0.039558,down
-0.597068,-0.028426,0.792329,0.034667,-0.051828,0.005921,down
-0.601094,-0.034221,0.785802,-0.002746,-0.040158,0.003604,down
-0.60268,-0.02989,0.783972,0.027115,-0.044706,0.020851,down
-0.811971,-0.053009,0.570228,0.032178,-0.020851,-0.004548,down
-0.796477,-0.054595,0.570106,0.031749,-0.026944,-0.001974,down
-0.814533,-0.053436,0.569374,0.019822,-0.019049,-0.000172,down
-0.815753,-0.053558,0.568032,0.029261,-0.028231,-0.001287,down
-0.814594,-0.053619,0.567178,0.002746,-0.024541,-0.003947,down
-0.815082,-0.053314,0.568337,0.033808,-0.030891,-0.005406,down
-0.815082,-0.053253,0.567788,0.026515,-0.026515,-0.001545,down
-0.814106,-0.052826,0.566873,0.014073,-0.029175,-0.006693,down
-0.815631,-0.051545,0.567422,0,-0.029089,0.02068,down
-0.816424,-0.051606,0.565897,0.033036,-0.031835,-0.003089,down
-0.953064,-0.057157,0.301584,0.018277,-0.013987,-0.010297,down
-0.952027,-0.056974,0.302438,0.034409,-0.004634,-0.009096,down
-0.952698,-0.055083,0.306159,0.029604,-0.020594,0.002488,down
-0.952454,-0.054473,0.307318,0.02231,-0.012442,0.001545,down
-0.951112,-0.054168,0.307928,0.027973,-0.000944,0.000343,down
-0.950441,-0.054473,0.308538,0.022997,-0.024026,-0.004548,down
-0.950502,-0.054107,0.308599,0.026429,-0.025828,0.000601,down
-0.950624,-0.054168,0.308172,0.026343,-0.026171,-0.002231,down
-0.950746,-0.054717,0.307867,0.022911,-0.027115,-0.005406,down
-0.952271,-0.054473,0.306952,0.024541,-0.02231,0.021709,down
-0.763964,-0.01647,0.632143,0.005749,-0.016475,-0.009525,down
-0.765123,-0.017202,0.632509,0.044792,-0.04565,-0.013901,down
-0.769393,-0.016653,0.630191,0.074567,-0.038785,0.008238,down
-0.772687,-0.020435,0.628239,0.050026,-0.031577,0.014845,down
-0.76494,-0.022875,0.630374,0.040158,-0.04033,-0.023597,down
-0.76982,-0.023607,0.628178,-0.013815,0.00163,0.011927,down
-0.763842,-0.020923,0.627995,-0.007294,-0.039214,-0.008838,down
-0.768905,-0.022814,0.624518,-0.013644,-0.035181,-0.013129,down
-0.77348,-0.023058,0.623359,0.01596,-0.035353,-0.004634,down
-0.775005,-0.021472,0.623115,0.029861,-0.034409,-0.001888,down
-0.766953,-0.026291,0.631777,0.024455,-0.026257,-0.00266,down
-0.767746,-0.026901,0.631838,0.033723,-0.036211,-0.001116,down
-0.769942,-0.028182,0.630435,0.041531,-0.030634,-0.000944,down
-0.7686,-0.028487,0.630191,0.043591,-0.029775,-0.010726,down
-0.769088,-0.027084,0.630374,0.00532,-0.026601,-0.009439,down
-0.772748,-0.028304,0.632753,0.091214,-0.059465,0.011155,down
-0.766892,-0.031476,0.624518,-0.063241,0.007036,-0.022911,down
-0.767929,-0.025132,0.629825,-0.001459,-0.051657,-0.033894,down
-0.770369,-0.017568,0.62952,0.03827,-0.027459,0.001459,down
-0.761402,-0.024583,0.628849,0.004634,-0.043848,-0.047023,down
-0.600667,-0.007625,0.778604,0.017247,-0.054059,-0.020851,down
-0.611342,-0.007808,0.777079,0.022053,-0.02969,-0.01064,down
-0.617991,-0.005429,0.777872,0.045393,-0.032435,0.010383,down
-0.621163,-0.006344,0.77409,0.04994,-0.042818,0.002059,down
-0.618052,-0.004697,0.771284,0.021109,-0.029003,-0.00429,down
-0.619333,-0.002318,0.770735,0.014845,-0.026601,-0.009525,down
-0.622261,0.000244,0.770247,0.018964,-0.030119,-0.009954,down
-0.625799,0.001525,0.769576,0.030204,-0.028917,-0.002403,down
-0.623359,0.00244,0.768905,0.031148,-0.030119,-0.010125,down
-0.622688,0.002806,0.768783,0.040673,-0.029604,-0.006607,down
-0.538813,0.002135,0.828319,0.032092,-0.046165,-0.005835,down
-0.541253,0.001769,0.825696,0.059465,-0.049683,-0.011756,down
-0.546499,-0.001586,0.823378,0.058607,-0.049769,-0.001716,down
-0.548329,-0.004087,0.819962,0.025228,-0.026601,-0.004634,down
-0.549427,-0.004026,0.821243,0.027459,-0.036125,-0.001459,down
-0.552233,-0.000976,0.821304,0.032607,-0.029775,0.006521,down
-0.55205,-0.001769,0.820023,0.022482,-0.023426,-0.007809,down
-0.554673,0.000061,0.820145,0.039987,-0.036468,-0.00695,down
-0.554368,-0.000488,0.819352,0.026257,-0.033723,-0.010383,down
-0.555222,0,0.818132,0.02437,-0.027716,-0.005835,down
-0.864492,-0.019642,0.497577,0.015703,-0.023426,-0.003947,down
-0.865895,-0.019154,0.497455,0.033551,-0.028403,-0.001201,down
-0.867603,-0.018483,0.49654,0.042647,-0.036125,0.004805,down
-0.866444,-0.019093,0.493734,0.023769,-0.026515,-0.006607,down
-0.867664,-0.018788,0.494283,0.031921,-0.026944,0.001287,down
-0.867908,-0.019337,0.494039,0.04136,-0.038699,0.000172,down
-0.867176,-0.019764,0.492392,0.020251,-0.03295,-0.004634,down
-0.868152,-0.019764,0.492209,0.019478,-0.025313,-0.004376,down
-0.868823,-0.019093,0.491599,0.020937,-0.016475,-0.002917,down
-0.868091,-0.017202,0.492026,0.016733,-0.043591,-0.004634,down
-0.867786,-0.011895,0.493063,0.034409,-0.030891,-0.002832,down
-0.868152,-0.010675,0.491965,0.033894,-0.027459,-0.021538,down
-0.868518,-0.010492,0.491904,0.031663,-0.023254,0.001545,down
-0.869921,-0.010614,0.490013,0.028145,-0.000601,0.005234,down
-0.868701,-0.011224,0.491416,0.039987,-0.028917,0.002317,down
-0.86986,-0.011956,0.490989,0.034066,-0.023597,0.001802,down
-0.868884,-0.011773,0.49105,0.040501,-0.031234,-0.000515,down
-0.870226,-0.012078,0.48983,0.028145,-0.02334,-0.000944,down
-0.86925,-0.012017,0.491172,0.043848,-0.02763,-0.002832,down
-0.867908,-0.011529,0.493307,0.034066,-0.030376,-0.002231,down
-0.984235,-0.025864,0.194529,0.000343,-0.01965,0.002832,down
-0.985333,-0.027633,0.193004,0.025399,-0.016389,0.00695,down
-0.981673,-0.028975,0.195322,0.038185,-0.028917,-0.000944,down
-0.982893,-0.031049,0.195993,0.03561,-0.027201,-0.006007,down
-0.983564,-0.029646,0.196298,0.03295,-0.031234,-0.002317,down
-0.981612,-0.029097,0.196237,0.033122,-0.028746,-0.003947,down
-0.981368,-0.028853,0.194834,0.023511,-0.023082,-0.016046,down
-0.981673,-0.025071,0.195017,0.01536,-0.02231,-0.007723,down
-0.981246,-0.026474,0.196481,0.042475,-0.027973,-0.010211,down
-0.981002,-0.025742,0.19825,0.016904,-0.027373,-0.013129,down
-0.986553,-0.026718,0.191296,0.045907,-0.020165,0.019221,down
-0.984418,-0.027816,0.192516,0.040072,-0.019908,0.004462,down
-0.999424,-0.028365,0.19337,0.022224,-0.025828,0.005578,down
-0.982466,-0.028182,0.193858,0.039386,-0.029089,-0.002231,down
-0.983198,-0.028792,0.193919,0.037927,-0.027716,-0.021881,down
-0.984296,-0.027877,0.193004,0.031234,-0.000515,-0.021881,down
-0.98393,-0.028609,0.192394,0.041102,-0.001459,0.021624,down
-0.983015,-0.02867,0.193675,0.038528,-0.030204,0.003518,down
-0.983198,-0.029524,0.193553,0.028231,-0.024799,0.003347,down
-0.982771,-0.029097,0.193858,0.02231,-0.000515,-0.006779,down
-0.834297,0.003416,0.541253,0.028574,-0.025313,-0.021023,down
-0.83082,0.003172,0.542168,0.021195,-0.025485,-0.002917,down
-0.833016,0.003172,0.540948,0.028832,-0.025742,-0.002403,down
-0.833565,0.002684,0.541863,0.000343,-0.029861,-0.003432,down
-0.83204,0.003843,0.540399,-0.011327,-0.012871,-0.010211,down
-0.831857,0.003782,0.543388,0.052772,-0.034066,-0.003432,down
-0.831796,0.004331,0.543327,0.043591,-0.039901,-0.007036,down
-0.836249,0.006405,0.541985,0.05895,-0.040673,0.008238,down
-0.836981,0.006832,0.538996,0.014931,-0.009439,0.015531,down
-0.835456,0.004453,0.538508,0.014158,-0.015188,-0.008667,down
-0.831674,-0.004392,0.544181,0.023597,-0.016218,0.021452,down
-0.831796,-0.004697,0.543632,0.015875,-0.016561,-0.006178,down
-0.830271,-0.00427,0.545096,0.024112,-0.031406,-0.001802,down
-0.830942,-0.004209,0.544364,0.023426,-0.042218,-0.005063,down
-0.832894,-0.004209,0.543937,0.032435,-0.021795,0.003347,down
-0.833016,-0.004636,0.54351,0.019307,-0.01802,-0.000601,down
-0.830942,-0.003172,0.543937,0.010297,-0.014931,-0.001888,down
-0.831064,-0.003538,0.544669,0.037498,-0.036812,-0.005921,down
-0.833687,-0.004331,0.544608,0.065472,-0.028059,0.000858,down
-0.832833,-0.00305,0.544547,0.029089,-0.017076,0.001201,down
-0.615307,0.005002,0.773114,0.061181,-0.056033,0.020851,down
-0.617137,0.000671,0.768966,0.000515,-0.032607,0.021023,down
-0.623176,-0.001098,0.76738,0.034323,-0.051227,0.009525,down
-0.625555,0.000244,0.780617,0.025828,-0.023426,-0.002488,down
-0.626714,-0.00366,0.76433,0.02866,-0.039386,-0.016304,down
-0.632509,-0.001586,0.763781,0.043934,-0.068046,-0.001373,down
-0.635498,-0.004026,0.756522,0.009868,-0.061954,-0.011498,down
-0.641415,-0.004209,0.752191,0.031234,-0.020508,-0.000686,down
-0.642452,-0.004758,0.752191,0.02497,-0.035696,-0.00635,down
-0.64416,-0.005917,0.750544,0.036983,-0.029861,-0.010383,down
-0.489159,-0.010675,0.855952,0.001888,-0.02866,-0.010383,down
-0.490379,-0.009699,0.856745,0.023254,-0.028059,-0.007723,down
-0.491416,-0.008967,0.857416,0.032693,-0.041445,-0.010125,down
-0.491721,-0.008479,0.855769,0.045993,-0.045822,-0.008066,down
-0.494466,-0.009699,0.854427,0.031749,-0.031063,-0.00695,down
-0.49227,-0.010065,0.852597,0.017934,-0.017505,-0.019564,down
-0.495991,-0.007076,0.853329,0.030891,-0.020508,-0.008409,down
-0.495869,-0.0061,0.854,0.042904,-0.023254,-0.004719,down
-0.494649,-0.004392,0.853329,0.008667,-0.001802,-0.005578,down
-0.495198,-0.002928,0.851987,0.008667,-0.015531,-0.004205,down
-0.806847,-0.026779,0.581086,0.025313,-0.033122,-0.005148,down
-0.809104,-0.026413,0.579561,0.03132,-0.028231,0.000429,down
-0.808799,-0.025803,0.579012,0.042647,-0.040244,-0.021624,down
-0.81069,-0.026901,0.577243,0.034152,-0.028145,0.001716,down
-0.810324,-0.026657,0.576572,0.038442,-0.034667,0,down
-0.809165,-0.02623,0.577609,0.012528,-0.022739,0.021366,down
-0.809165,-0.025986,0.576938,0.02497,-0.000172,0.000515,down
-0.81252,-0.026718,0.574925,0.014244,-0.023168,-0.000601,down
-0.810263,-0.02562,0.575535,0.013901,-0.026858,-0.005835,down
-0.81191,-0.025254,0.574925,0.019135,-0.022653,-0.000944,down
-0.939705,-0.047946,0.336903,0.02334,-0.02437,-0.008152,down
-0.939644,-0.047275,0.336537,0.007208,-0.007294,-0.007122,down
-0.939705,-0.046665,0.337574,0.013815,-0.018964,-0.003175,down
-0.939034,-0.046116,0.338916,0.027287,-0.022911,-0.00163,down
-0.939156,-0.045994,0.33977,0.036554,-0.028145,0.001459,down
-0.941657,-0.046116,0.337879,0.022653,-0.000858,0.004462,down
-0.941718,-0.046726,0.337635,0.014759,-0.015875,0.000515,down
-0.942755,-0.046909,0.336537,0.03029,-0.023082,0.004205,down
-0.94123,-0.047885,0.335988,0.028317,-0.027201,0.001287,down
-0.942206,-0.048434,0.334707,0.000343,-0.02128,-0.001545,down
-0.742797,-0.04148,0.656116,0.034924,-0.065901,-0.000772,down
-0.744505,-0.042517,0.655262,0.017676,-0.023254,-0.006007,down
-0.745969,-0.042395,0.655079,0.013729,-0.012099,-0.005406,down
-0.745176,-0.040748,0.656665,0.027973,-0.024198,0.000858,down
-0.745542,-0.04148,0.656604,0.031406,-0.023082,0.001888,down
-0.745359,-0.04148,0.654347,0.00738,-0.011927,-0.008752,down
-0.745115,-0.040931,0.655811,0.029604,-0.028317,-0.004033,down
-0.746457,-0.040992,0.671427,0.033723,-0.02866,-0.000257,down
-0.745054,-0.042334,0.655628,0.036726,-0.030805,-0.002574,down
-0.743163,-0.042883,0.65636,0.023855,-0.035439,-0.006178,down
-0.083448,0.701012,0.672098,0.001459,-0.019221,0.021538,left
-0.083143,0.701195,0.672098,0.015875,-0.001116,-0.004805,left
-0.083448,0.701439,0.671976,0.018878,-0.02437,-0.005148,left
-0.083875,0.702903,0.67039,0.019736,-0.021366,-0.007894,left
-0.084241,0.702598,0.670695,0.012356,-0.02334,-0.015016,left
-0.081191,0.705709,0.667584,0.001459,-0.020937,-0.02068,left
-0.077653,0.70943,0.663375,0.00429,-0.015102,-0.025571,left
-0.078324,0.711199,0.661606,-0.008752,-0.021195,-0.033637,left
-0.080886,0.711626,0.661728,0.093531,-0.02866,-0.065214,left
-0.064721,0.714981,0.659105,0.034495,-0.010898,-0.028917,left
-0.09516,0.524234,0.815997,0.019393,-0.01862,-0.005835,left
-0.091927,0.526491,0.814167,0.019307,-0.018878,-0.007294,left
-0.090585,0.527955,0.812886,0.021538,-0.019049,-0.004119,left
-0.090951,0.529785,0.813557,0.000257,-0.019135,-0.006607,left
-0.089609,0.530456,0.813069,0.019736,-0.022997,-0.003432,left
-0.089914,0.530944,0.812276,0.019908,-0.023769,-0.005492,left
-0.088694,0.532286,0.811056,0.025657,-0.025485,-0.003776,left
-0.087108,0.533567,0.811056,0.027716,-0.025313,-0.002917,left
-0.088206,0.533628,0.810385,0.026,-0.023426,-0.002917,left
-0.08845,0.533384,0.810446,0.027373,-0.024713,-0.002832,left
-0.114131,0.29585,0.922198,0.01596,-0.021366,-0.004376,left
-0.11407,0.301096,0.921344,0.021624,-0.025228,-0.001974,left
-0.113399,0.30012,0.922137,0.02497,-0.021709,-0.000772,left
-0.114192,0.299815,0.921771,0.024455,-0.02866,-0.002317,left
-0.115961,0.30195,0.921222,0.027973,-0.027287,-0.002832,left
-0.118157,0.299266,0.922625,0.043247,-0.011412,0.0133,left
-0.113277,0.301401,0.921283,0.02128,-0.022997,-0.009696,left
-0.116388,0.301401,0.920795,0.009954,-0.014502,-0.005663,left
-0.11285,0.303353,0.918538,0.020422,-0.026772,-0.001888,left
-0.114985,0.307623,0.920429,0.039129,-0.029947,-0.001459,left
-0.111203,0.323239,0.914329,0.023082,-0.027373,-0.005234,left
-0.111142,0.324032,0.913841,0.026086,-0.025742,-0.002746,left
-0.111752,0.324215,0.913414,0.02437,-0.025828,-0.00532,left
-0.111508,0.323849,0.914024,0.043676,-0.025657,-0.005749,left
-0.110349,0.325252,0.913292,0.022997,-0.028746,-0.004205,left
-0.112179,0.325923,0.913597,0.020337,-0.026601,-0.005578,left
-0.112606,0.325679,0.913597,0.021109,-0.022911,-0.006264,left
-0.112362,0.327509,0.912499,0.027802,-0.026515,-0.003261,left
-0.112057,0.326533,0.913048,0.02394,-0.043934,-0.003347,left
-0.111447,0.327082,0.91256,0.029518,-0.027201,-0.003518,left
-0.100772,0.522587,0.814045,0.030719,-0.013472,-0.004205,left
-0.094123,0.51911,0.81557,0.036726,-0.017162,0.00369,left
-0.093635,0.516792,0.819657,0.021366,-0.014931,-0.002746,left
-0.095282,0.519476,0.817217,0.02969,-0.028917,-0.006264,left
-0.094611,0.517951,0.818254,0.028574,-0.01965,-0.002832,left
-0.094245,0.518439,0.818498,0.02497,-0.02334,-0.003003,left
-0.094489,0.518622,0.818315,0.033379,-0.026858,-0.000858,left
-0.093391,0.516487,0.819047,0.000858,-0.025914,-0.003947,left
-0.09455,0.517524,0.818498,0.028403,-0.026343,-0.003347,left
-0.095587,0.517768,0.818498,0.027888,-0.028231,-0.001974,left
-0.101687,0.628666,0.737368,0.024112,-0.024884,-0.005406,left
-0.102358,0.628727,0.736697,0.024541,-0.021967,-0.001459,left
-0.101321,0.628544,0.737063,0.026686,-0.017419,-0.001545,left
-0.102419,0.627812,0.7381,0.023082,-0.019822,-0.003947,left
-0.101809,0.629337,0.7381,0.028231,-0.027802,-0.003604,left
-0.103029,0.628056,0.738893,0.024284,-0.023683,-0.004033,left
-0.103334,0.628727,0.737978,0.027716,-0.028403,-0.006521,left
-0.102358,0.628422,0.737429,0.027201,-0.015531,-0.001888,left
-0.101443,0.629703,0.736941,0.025228,-0.029518,-0.010469,left
-0.102724,0.627141,0.738588,0.024284,-0.025399,-0.007122,left
-0.101809,0.621529,0.742065,0.042475,-0.032178,0.005663,left
-0.102846,0.619821,0.742675,0.038614,-0.026686,-0.003261,left
-0.104493,0.618357,0.743956,0.035353,-0.025313,-0.003261,left
-0.102968,0.616344,0.745542,0.034237,-0.02763,-0.004548,left
-0.104859,0.615124,0.746762,0.030462,-0.020337,-0.00738,left
-0.105408,0.615429,0.746701,0.026858,-0.017333,-0.002832,left
-0.103334,0.615246,0.747311,0.024884,-0.021195,-0.005234,left
-0.102724,0.613294,0.749141,0.026086,-0.024884,-0.004462,left
-0.103761,0.611891,0.751459,0.010125,-0.063412,-0.050541,left
-0.103944,0.61976,0.745115,0.02497,-0.023511,-0.000686,left
-0.144021,0.261995,0.93208,0.002917,-0.017247,-0.009181,left
-0.138958,0.266692,0.929152,0.009868,-0.025056,-0.009696,left
-0.141703,0.272121,0.92903,0.006607,-0.021366,-0.008409,left
-0.136518,0.273951,0.928054,0.005749,-0.023082,-0.008495,left
-0.138592,0.278831,0.926651,0.019393,-0.02969,-0.00738,left
-0.138958,0.278953,0.927322,0.029003,-0.025828,-0.004634,left
-0.14091,0.278526,0.9272,0.014587,-0.025228,-0.007637,left
-0.140117,0.282369,0.926346,0.024884,-0.024799,-0.007036,left
-0.138714,0.282918,0.92537,0.020251,-0.017333,-0.006865,left
-0.137555,0.283284,0.924943,0.016218,-0.019393,-0.008238,left
-0.124684,0.487146,0.834297,0.034838,-0.02231,-0.006607,left
-0.122,0.499651,0.838323,0.007465,-0.012442,-0.013558,left
-0.119438,0.484706,0.837286,0.010125,-0.019221,-0.006693,left
-0.120048,0.488366,0.834236,0.025485,-0.017162,-0.004462,left
-0.117486,0.486902,0.834236,0.019393,-0.017934,-0.008752,left
-0.118584,0.491111,0.833809,0.020766,-0.023683,-0.004719,left
-0.118828,0.490928,0.833199,0.020851,-0.024627,-0.01064,left
-0.116144,0.489952,0.83387,0.040158,-0.027115,-0.021023,left
-0.115107,0.487817,0.834602,0.031663,-0.018363,-0.000858,left
-0.116876,0.488122,0.835334,0.02497,-0.016389,-0.004719,left
-0.113704,0.485255,0.837042,0.031921,-0.048653,-0.03398,left
-0.113704,0.477203,0.839909,0.038871,-0.028403,-0.004891,left
-0.119682,0.476654,0.838323,0.025742,-0.015875,-0.017419,left
-0.111264,0.476105,0.841556,0.018106,-0.012785,-0.004462,left
-0.112911,0.478667,0.839238,0.033723,-0.018277,0.00635,left
-0.112606,0.475678,0.841068,0.028488,-0.016046,0.002832,left
-0.113216,0.47702,0.840336,0.000086,-0.020851,-0.001974,left
-0.112606,0.475617,0.841495,0.025142,-0.020594,-0.002832,left
-0.112545,0.477813,0.840275,0.02969,-0.021366,-0.001545,left
-0.113033,0.478179,0.842105,0.030119,-0.021452,-0.003003,left
-0.156038,0.333731,0.904691,0.008581,-0.018277,-0.006007,left
-0.156892,0.335622,0.903837,0.016218,-0.020594,-0.004205,left
-0.154696,0.338306,0.903044,0.021195,-0.021109,-0.00532,left
-0.153293,0.338794,0.902922,0.017934,-0.022224,-0.004205,left
-0.154452,0.340502,0.902129,0.026257,-0.024284,-0.000858,left
-0.15372,0.339526,0.901336,0.023426,-0.017676,-0.00266,left
-0.153537,0.342027,0.90219,0.016218,-0.021366,-0.00695,left
-0.151951,0.341112,0.90158,0.024198,-0.017333,-0.005492,left
-0.153415,0.343979,0.900848,0.014073,-0.019221,-0.001373,left
-0.150731,0.345138,0.900787,0.01862,-0.020766,-0.004548,left
-0.149938,0.35502,0.897127,0.025742,-0.021195,-0.002832,left
-0.149328,0.355264,0.896456,0.029346,-0.02866,-0.003175,left
-0.150243,0.356728,0.8967,0.025142,-0.023597,-0.003776,left
-0.146949,0.354654,0.89853,0.028488,-0.019908,-0.001201,left
-0.147376,0.357704,0.897066,0.020594,-0.042647,-0.001802,left
-0.147803,0.355874,0.897188,0.028488,-0.023769,-0.001545,left
-0.148657,0.356301,0.896517,0.043247,-0.043934,-0.001373,left
-0.14823,0.358253,0.896639,0.000343,-0.027802,0.001116,left
-0.148718,0.359046,0.896273,0.031663,-0.02394,0.002231,left
-0.149023,0.358375,0.896578,0.02231,-0.019564,-0.000858,left
-0.135481,0.526552,0.807884,0.024198,-0.02231,-0.010383,left
-0.137189,0.526857,0.809897,0.032092,-0.01699,0.021023,left
-0.135847,0.52643,0.809043,0.025657,-0.021881,-0.005578,left
-0.136457,0.524173,0.810812,0.025657,-0.025657,-0.004977,left
-0.135359,0.526247,0.809226,0.023168,-0.026515,-0.007637,left
-0.134993,0.525515,0.808799,0.025571,-0.022568,-0.004634,left
-0.13603,0.52582,0.809592,0.032521,-0.022482,-0.00266,left
-0.133468,0.523563,0.809226,0.035439,-0.037927,-0.009353,left
-0.135725,0.525454,0.807823,0.037756,-0.016218,-0.005148,left
-0.134749,0.523868,0.810812,0.021967,-0.020165,-0.008409,left
-0.131882,0.527467,0.809653,0.025142,-0.024713,-0.005921,left
-0.132309,0.528809,0.808921,0.028231,-0.027802,-0.003604,left
-0.132126,0.528504,0.808677,0.021195,-0.021366,-0.00695,left
-0.131638,0.527528,0.808738,0.022482,-0.019993,-0.007551,left
-0.131882,0.529602,0.806664,0.026171,-0.019736,-0.005063,left
-0.130967,0.528504,0.807762,0.024112,-0.021709,-0.004719,left
-0.130113,0.52948,0.807518,0.027716,-0.026944,-0.005234,left
-0.13054,0.530029,0.807762,0.02703,-0.025313,-0.00429,left
-0.129808,0.528443,0.807152,0.02763,-0.042303,-0.005749,left
-0.13054,0.529114,0.806725,0.025914,-0.019135,-0.002488,left
-0.161772,0.334646,0.905057,0.010812,-0.008838,-0.000858,left
-0.159515,0.33611,0.904447,0.018106,-0.017591,-0.002317,left
-0.16043,0.337391,0.903593,0.019993,-0.000343,-0.004634,left
-0.160003,0.337696,0.903654,0.007122,-0.016647,-0.005234,left
-0.156831,0.338916,0.903227,0.02703,-0.02437,-0.00266,left
-0.159393,0.340624,0.902922,0.026171,-0.043848,0.00429,left
-0.160125,0.339953,0.903349,0.021366,-0.000172,-0.00429,left
-0.15921,0.340624,0.903349,0.043419,-0.019307,-0.001116,left
-0.157624,0.341722,0.902251,0.033723,-0.023426,0.021366,left
-0.159271,0.342393,0.903532,0.021538,-0.016818,-0.00103,left
-0.177449,0.245586,0.931592,0.013472,-0.043848,-0.009353,left
-0.176168,0.247721,0.930067,0.043419,-0.020851,-0.003947,left
-0.177205,0.247599,0.929396,0.020422,-0.025657,-0.00695,left
-0.177266,0.247782,0.930433,0.019478,-0.025228,-0.004977,left
-0.177083,0.249368,0.930921,0.027888,-0.030805,-0.005406,left
-0.177693,0.24827,0.930433,0.017162,-0.024455,-0.004119,left
-0.177449,0.249002,0.930799,0.043247,-0.000601,-0.004205,left
-0.179828,0.25254,0.929274,0.031234,-0.033723,-0.004548,left
-0.179645,0.252357,0.927688,0.042218,-0.042904,0.003604,left
-0.176412,0.249612,0.928481,0.006693,-0.011498,-0.005406,left
-0.154208,0.478362,0.834907,0.021023,-0.029518,-0.03767,left
-0.150792,0.480802,0.834602,0.04033,-0.024026,-0.003175,left
-0.151951,0.478667,0.836249,0.039901,-0.025399,-0.000858,left
-0.15311,0.477874,0.835456,0.019564,-0.007809,-0.005921,left
-0.149694,0.476959,0.83875,0.026686,-0.00103,-0.005749,left
-0.143045,0.471896,0.827282,0.056977,0.074825,-0.009954,left
-0.145241,0.473299,0.846558,0.022396,-0.025313,-0.012185,left
-0.138287,0.472262,0.844911,0.021967,-0.027802,-0.007208,left
-0.138043,0.469578,0.84424,0.016818,-0.026772,-0.004977,left
-0.13847,0.469822,0.845277,0.025313,-0.028231,-0.006007,left
-0.101321,0.631106,0.732305,0.032006,-0.011412,-0.00369,left
-0.100467,0.630435,0.732915,0.02437,-0.010812,-0.001802,left
-0.100467,0.631228,0.733464,0.033122,-0.001201,-0.004119,left
-0.099369,0.62891,0.735355,0.026171,-0.01433,-0.004376,left
-0.099369,0.628544,0.734745,0.026601,-0.017333,-0.005578,left
-0.096685,0.627751,0.73505,0.034066,-0.020337,-0.006607,left
-0.099125,0.628361,0.735782,0.039129,-0.020766,-0.000944,left
-0.098332,0.627995,0.736514,0.054831,-0.029432,-0.000343,left
-0.096258,0.621041,0.743529,0.012528,-0.013644,-0.012271,left
-0.095282,0.623298,0.741577,0.026,-0.019049,-0.005492,left
-0.092598,0.608902,0.754692,0.033894,-0.01536,-0.004033,left
-0.09272,0.608902,0.754448,0.040158,-0.019822,-0.004033,left
-0.088206,0.606462,0.756583,0.045993,-0.038699,-0.002403,left
-0.094794,0.602924,0.759145,0.047795,-0.035181,-0.008323,left
-0.091073,0.604327,0.759755,0.030204,-0.023426,-0.001287,left
-0.091744,0.601643,0.760548,0.020508,-0.014073,-0.00266,left
-0.09272,0.598959,0.761707,0.040931,-0.013815,-0.007208,left
-0.089853,0.602375,0.759511,0.022568,-0.00901,-0.003003,left
-0.087169,0.603107,0.75823,0.024455,-0.01596,-0.004977,left
-0.087169,0.603107,0.758657,0.048911,-0.030891,-0.000772,left
-0.138226,0.20923,0.947696,-0.003518,-0.010297,-0.007637,left
-0.134017,0.212951,0.945378,-0.003861,-0.019135,-0.011155,left
-0.135298,0.219356,0.944341,-0.006436,-0.017848,-0.008323,left
-0.133895,0.22387,0.94306,0.007122,-0.019307,-0.007294,left
-0.135359,0.227835,0.94184,0.012271,-0.000686,-0.006865,left
-0.132858,0.229909,0.941352,-0.007723,-0.010211,-0.003518,left
-0.130967,0.240401,0.938607,0.008495,-0.027373,-0.016218,left
-0.129686,0.244305,0.93696,0.016475,-0.021881,-0.006264,left
-0.130296,0.246074,0.936472,0.0133,-0.024884,-0.007036,left
-0.129869,0.248087,0.935557,0.000086,-0.026515,-0.005921,left
-0.096319,-0.366061,0.914573,0.025485,-0.028403,-0.009954,right
-0.096868,-0.366793,0.914085,0.041703,-0.026171,-0.004462,right
-0.098088,-0.368379,0.914085,0.027459,-0.02394,-0.003432,right
-0.097844,-0.36966,0.914695,0.033465,-0.030033,-0.011756,right
-0.098332,-0.370026,0.913963,0.030719,-0.023855,-0.005835,right
-0.099552,-0.370636,0.913658,0.02969,-0.028059,-0.00369,right
-0.099064,-0.371551,0.914085,0.032865,-0.026429,-0.006607,right
-0.099369,-0.371856,0.913841,0.029432,-0.022396,-0.006607,right
-0.099735,-0.372832,0.914451,0.000601,-0.012957,-0.00429,right
-0.098576,-0.372954,0.915,0.020079,-0.02437,-0.010469,right
-0.087901,-0.331474,0.930555,0.032178,-0.024799,-0.005663,right
-0.089243,-0.332816,0.930189,0.032435,-0.011155,-0.000257,right
-0.086132,-0.33306,0.928847,0.029261,-0.000343,-0.006865,right
-0.086498,-0.333914,0.929762,0.024198,-0.023426,-0.005921,right
-0.08662,-0.333792,0.929518,0.024112,-0.02437,-0.008495,right
-0.086254,-0.334158,0.930921,0.023168,-0.027973,-0.009439,right
-0.086498,-0.333914,0.930067,0.031406,-0.021967,-0.006693,right
-0.087047,-0.335073,0.930677,0.028488,-0.020337,-0.00635,right
-0.087535,-0.335744,0.929396,0.02497,-0.01699,-0.005234,right
-0.086498,-0.335439,0.928542,0.026343,-0.020165,-0.00695,right
-0.099613,-0.599203,0.792695,0.043162,-0.027115,-0.008752,right
-0.100467,-0.597678,0.792573,0.025056,-0.027201,-0.009096,right
-0.100894,-0.598227,0.793427,0.001373,-0.024799,-0.007208,right
-0.101077,-0.597251,0.793183,0.028574,-0.025313,-0.004805,right
-0.103761,-0.596214,0.79361,0.009096,-0.030977,-0.006092,right
-0.103822,-0.593713,0.787327,0.038185,-0.027287,0.037756,right
-0.094184,-0.601521,0.78629,0.014502,-0.032521,-0.015445,right
-0.098088,-0.60268,0.788913,0.02866,-0.018191,-0.005492,right
-0.097844,-0.603168,0.788608,0.028059,-0.023855,-0.010125,right
-0.097539,-0.602131,0.787693,0.018277,-0.027201,-0.014502,right
-0.124562,-0.701805,0.699304,0,-0.028317,-0.006436,right
-0.12566,-0.702171,0.698999,0.018535,-0.031663,-0.020594,right
-0.124989,-0.701622,0.700158,0.030719,-0.028488,-0.010211,right
-0.126636,-0.701744,0.700341,0.027888,-0.02437,-0.007122,right
-0.129808,-0.70211,0.700097,0.025056,-0.024541,0.021452,right
-0.12932,-0.701744,0.700219,0.013901,-0.031577,-0.00266,right
-0.125477,-0.697657,0.70211,0.022396,-0.027287,-0.013558,right
-0.127002,-0.699182,0.701683,0.019908,-0.027973,-0.011412,right
-0.132675,-0.699487,0.701439,0.030805,-0.026515,-0.008838,right
-0.132797,-0.703147,0.703452,0.030805,-0.034152,0.002574,right
-0.160186,-0.834724,0.536251,0.017247,-0.029346,-0.011584,right
-0.16104,-0.833199,0.537532,0.029861,-0.02497,-0.008409,right
-0.161467,-0.832955,0.537349,0.023254,-0.020766,-0.00266,right
-0.160003,-0.834297,0.537715,0.029518,-0.028832,-0.011412,right
-0.161833,-0.832894,0.53741,0.035782,-0.026772,-0.004462,right
-0.161833,-0.833748,0.537166,0.023511,-0.027716,-0.005921,right
-0.162626,-0.832284,0.5368,0.031406,-0.026257,-0.007294,right
-0.162199,-0.833809,0.535641,0.016132,-0.012013,-0.007208,right
-0.163724,-0.83387,0.536983,0.026686,-0.026858,-0.006607,right
-0.166835,-0.835578,0.537288,0.029089,-0.007894,0.019393,right
-0.167445,-0.833687,0.537166,0.00429,-0.026686,-0.012957,right
-0.167262,-0.830881,0.538813,0.020851,-0.024713,-0.007894,right
-0.169397,-0.83143,0.540887,0.030376,-0.02068,0.004548,right
-0.16775,-0.829539,0.540094,0.014073,-0.022396,-0.00635,right
-0.164639,-0.8296,0.540948,0.029175,-0.025742,-0.010726,right
-0.168848,-0.830759,0.541375,0.014158,-0.043934,-0.002317,right
-0.166408,-0.830637,0.542595,0.011327,-0.000772,-0.004548,right
-0.167384,-0.827892,0.544059,0.018449,-0.020165,0.00163,right
-0.167018,-0.831308,0.545279,-0.021538,-0.028145,-0.018792,right
-0.163541,-0.824842,0.546804,0.025142,-0.030891,-0.016475,right
-0.189527,-0.863089,0.482876,0.017162,-0.023082,-0.006693,right
-0.190625,-0.863089,0.483486,0.026,-0.023168,-0.001459,right
-0.19032,-0.863577,0.485194,0.019393,-0.02394,-0.005492,right
-0.190564,-0.862479,0.484462,0.020165,-0.020937,-0.002574,right
-0.190015,-0.860954,0.48434,0.025571,-0.026343,-0.003861,right
-0.189771,-0.862174,0.485377,0.025571,-0.021023,0.021795,right
-0.188551,-0.860771,0.484706,0.025657,-0.025657,-0.010297,right
-0.189161,-0.861747,0.485804,0.023597,-0.019908,-0.006693,right
-0.190259,-0.86193,0.485133,0.000944,-0.024284,-0.008838,right
-0.191357,-0.861137,0.485499,0.020937,-0.02497,-0.010211,right
-0.188063,-0.858697,0.489891,0.024627,-0.022653,-0.007122,right
-0.186904,-0.859185,0.489769,0.02128,-0.024284,-0.00738,right
-0.188002,-0.858758,0.489647,0.023426,-0.000343,-0.003518,right
-0.187697,-0.859246,0.489281,0.017076,-0.000257,-0.005148,right
-0.187575,-0.859063,0.490562,0.026343,-0.021023,-0.00369,right
-0.18666,-0.859429,0.490867,0.02703,-0.021538,-0.007465,right
-0.202947,-0.858453,0.490623,0.027888,-0.00163,-0.003003,right
-0.18727,-0.859673,0.490623,0.027115,-0.016561,-0.000515,right
-0.18544,-0.859795,0.490135,0.029432,-0.022911,-0.004805,right
-0.185623,-0.860588,0.490867,0.024026,-0.04196,-0.007208,right
-0.167872,-0.923662,0.364658,0.024198,-0.043333,-0.014673,right
-0.169458,-0.92598,0.364719,0.030977,-0.023254,-0.004033,right
-0.169885,-0.925126,0.364597,0.025142,-0.023855,-0.004634,right
-0.167933,-0.925187,0.364536,0.026515,-0.026429,-0.006264,right
-0.169641,-0.924516,0.36539,0.02068,-0.023426,-0.010726,right
-0.169885,-0.925248,0.366305,0.022739,-0.01965,-0.004805,right
-0.169885,-0.924089,0.366366,0.027287,-0.021023,-0.008581,right
-0.170556,-0.924821,0.366122,0.043505,-0.025056,-0.002832,right
-0.171593,-0.925248,0.365268,0.006178,-0.024627,-0.001201,right
-0.169031,-0.923723,0.367952,0.021709,-0.024884,-0.004719,right
-0.146034,-0.72346,0.67771,0.038699,-0.013043,0.004119,right
-0.141825,-0.724009,0.677588,0.034667,-0.019822,0.002231,right
-0.139324,-0.725961,0.675636,0.029861,-0.02437,-0.012614,right
-0.140178,-0.726205,0.674721,0.037498,-0.019307,0.002574,right
-0.138226,-0.727059,0.673684,0.03398,-0.026515,-0.007637,right
-0.139995,-0.729072,0.672525,0.023597,-0.023855,-0.006607,right
-0.139507,-0.728523,0.671976,0.027373,-0.022139,-0.006693,right
-0.139507,-0.729987,0.671976,0.028488,-0.020766,-0.003604,right
-0.13847,-0.729621,0.671549,0.034152,-0.025056,-0.00798,right
-0.139141,-0.730475,0.669902,0.021967,-0.024026,-0.002917,right
-0.09821,-0.572302,0.808982,0.039214,-0.020079,-0.003776,right
-0.098576,-0.574376,0.808982,0.031148,-0.018535,-0.006693,right
-0.096319,-0.575108,0.80764,0.025914,-0.016647,-0.008838,right
-0.096868,-0.575413,0.807762,0.032865,-0.018964,-0.006007,right
-0.096258,-0.576145,0.808189,0.03501,-0.025056,-0.011412,right
-0.096197,-0.576572,0.807457,0.040931,-0.018191,-0.005578,right
-0.094001,-0.579256,0.805566,0.028403,-0.021195,-0.006007,right
-0.09455,-0.5795,0.80459,0.028403,-0.024541,-0.005578,right
-0.095221,-0.579988,0.804468,0.033294,-0.017333,0.007894,right
-0.095221,-0.581513,0.802943,0.028746,-0.022482,-0.003776,right
-0.070882,-0.503189,0.854915,0.03398,-0.043591,-0.005063,right
-0.069601,-0.50447,0.854915,0.034838,-0.027287,-0.005492,right
-0.071736,-0.506056,0.855037,0.022224,-0.026686,-0.009782,right
-0.071431,-0.50508,0.854793,0.030719,-0.035868,-0.007036,right
-0.072651,-0.5063,0.85217,0.046251,-0.014759,0.006865,right
-0.066917,-0.507825,0.850279,0.031921,-0.030119,-0.018363,right
-0.072285,-0.50874,0.851682,0.02128,-0.018706,-0.003089,right
-0.069113,-0.508191,0.849608,0.041016,-0.021538,-0.002403,right
-0.070272,-0.510265,0.850035,0.024026,-0.024112,-0.006264,right
-0.070821,-0.509106,0.849791,0.030204,-0.02068,-0.00266,right
-0.058011,-0.420046,0.894748,0.03029,-0.024026,-0.005492,right
-0.05917,-0.422303,0.895541,0.031835,-0.024799,-0.005063,right
-0.060085,-0.423279,0.894565,0,-0.016818,-0.008323,right
-0.058072,-0.423279,0.893528,0.035096,-0.026171,-0.002145,right
-0.056974,-0.425414,0.893345,0.042389,-0.020165,0.001802,right
-0.057462,-0.424499,0.894016,0.027287,-0.02703,-0.00635,right
-0.060207,-0.427122,0.893528,0.027888,-0.013729,-0.012614,right
-0.05856,-0.42883,0.895053,0.031835,-0.0127,0.000515,right
-0.055571,-0.427244,0.891454,0.020079,-0.022739,-0.002832,right
-0.05551,-0.427122,0.891393,0.007465,-0.030719,-0.016304,right
-0.092476,-0.751581,0.652456,0.025313,-0.027287,-0.004805,right
-0.093513,-0.753228,0.652212,0.002145,-0.043934,-0.009696,right
-0.088389,-0.750178,0.651663,-0.006178,-0.048224,0.004205,right
-0.08601,-0.749812,0.654591,0.01596,-0.030033,-0.019049,right
-0.089487,-0.750605,0.65453,0.018964,-0.028145,-0.016218,right
-0.091256,-0.750788,0.655018,0.0133,-0.018964,-0.002488,right
-0.088816,-0.749568,0.656787,0.009181,-0.02497,-0.007894,right
-0.090097,-0.747738,0.657946,0.020594,-0.025142,-0.005063,right
-0.091927,-0.746701,0.658983,0.030033,-0.017247,-0.000429,right
-0.091256,-0.746762,0.660386,0.020766,-0.023597,-0.008409,right
-0.096258,-0.74176,0.666547,0.026686,-0.025742,-0.00798,right
-0.095648,-0.743224,0.665998,0.024713,-0.026,-0.003776,right
-0.095465,-0.740662,0.664168,0.002746,-0.008924,-0.007723,right
-0.094367,-0.73932,0.668499,-0.003347,-0.008409,-0.010125,right
-0.090585,-0.733403,0.674111,0.038099,-0.025142,-0.013644,right
-0.094611,-0.735904,0.674294,0.013043,-0.020251,0.000515,right
-0.093269,-0.735477,0.677405,0.014502,-0.034752,-0.016389,right
-0.091378,-0.730048,0.678198,0.006178,-0.02969,-0.019822,right
-0.09638,-0.726266,0.680333,0.016733,-0.023855,-0.016475,right
-0.097661,-0.724375,0.681553,0.024627,-0.017505,-0.00266,right
-0.114253,-0.841129,0.536251,0.016818,-0.02703,-0.007294,right
-0.115351,-0.839665,0.537288,0.013472,-0.026343,-0.008924,right
-0.115656,-0.837347,0.53924,0.004548,-0.026257,-0.013214,right
-0.112179,-0.835578,0.54168,0.042818,-0.027201,-0.001974,right
-0.11773,-0.835944,0.542412,0.024112,-0.016733,-0.005835,right
-0.117364,-0.833443,0.540704,0,-0.007122,0.019478,right
-0.109495,-0.836981,0.544547,0.015188,-0.027373,-0.015875,right
-0.112118,-0.833992,0.544547,0.031663,-0.024455,-0.007208,right
-0.114863,-0.835151,0.54168,0.02394,-0.026086,0.007551,right
-0.109434,-0.836737,0.545584,0.033723,-0.028317,-0.007551,right
-0.101992,-0.813496,0.581635,0.023426,-0.020508,-0.004376,right
-0.097783,-0.812703,0.580293,0.026515,-0.019736,-0.007894,right
-0.097661,-0.813252,0.578341,0.032264,-0.025657,0.023855,right
-0.100101,-0.815448,0.57889,0.033122,-0.018878,-0.00429,right
-0.091073,-0.814899,0.578463,0.040673,-0.036554,-0.020165,right
-0.097173,-0.819901,0.571753,0.004719,-0.029261,0.005578,right
-0.089487,-0.819108,0.576877,-0.057921,-0.012957,-0.006865,right
-0.095709,-0.812703,0.57889,0.030376,-0.021109,0.00163,right
-0.098393,-0.813679,0.581025,0.016904,-0.015789,0.003776,right
-0.094367,-0.810446,0.584563,0.017762,-0.027201,-0.033122,right
-0.100772,-0.893772,0.453474,0.031148,-0.022825,-0.005578,right
-0.09699,-0.891149,0.452254,0.026515,-0.031577,-0.030119,right
-0.099857,-0.89304,0.452803,0.025828,-0.023426,-0.007637,right
-0.097844,-0.890173,0.453657,0.017934,-0.015188,0.013729,right
-0.097051,-0.892796,0.454328,0.006693,-0.001201,-0.007551,right
-0.098149,-0.89182,0.458598,0.031148,-0.022224,-0.000601,right
-0.095892,-0.890783,0.457988,0.028832,-0.02334,-0.009868,right
-0.097722,-0.890722,0.458354,0.02068,-0.025142,-0.009782,right
-0.095648,-0.890112,0.459818,0.029775,-0.022997,-0.012099,right
-0.099552,-0.891454,0.459513,0.025142,-0.021624,-0.002317,right
-0.061122,-0.686921,0.724924,0.031148,-0.025914,-0.006007,right
-0.062098,-0.688995,0.724558,0.024884,-0.000944,-0.005921,right
-0.06222,-0.687958,0.723887,0.03132,-0.016647,-0.003518,right
-0.061,-0.688446,0.723094,-0.007208,-0.013558,-0.01004,right
-0.061549,-0.686616,0.725961,0.000429,-0.019478,-0.006521,right
-0.061305,-0.685884,0.726754,0.017419,-0.017162,-0.0127,right
-0.061122,-0.683993,0.727486,0.029861,-0.030119,-0.011498,right
-0.062342,-0.683505,0.72773,0.026858,-0.031921,-0.011498,right
-0.06466,-0.68442,0.726998,0.022482,-0.028488,-0.010726,right
-0.064599,-0.683871,0.72712,0.000944,-0.029518,-0.010983,right
-0.069418,-0.679357,0.730475,0.031234,-0.024284,-0.002231,right
-0.068076,-0.678503,0.731268,0.043333,-0.023511,-0.013214,right
-0.07137,-0.678869,0.729926,0.02334,-0.029346,-0.01064,right
-0.072102,-0.679845,0.729865,0.029518,-0.022396,-0.002317,right
-0.072285,-0.68015,0.730048,0.014931,-0.024198,-0.004548,right
-0.070699,-0.678442,0.730109,0.030462,-0.02703,-0.006779,right
-0.071797,-0.680333,0.72956,0.03295,-0.021366,-0.003947,right
-0.070028,-0.679235,0.728767,0.020766,-0.025828,-0.010211,right
-0.069052,-0.681248,0.729743,-0.026171,-0.01862,-0.036211,right
-0.07259,-0.672708,0.736758,0.001373,-0.015703,-0.006779,right
