acc_x,acc_y,acc_z,gyro_x,gyro_y,gyro_z,direction
0.808128,-0.003599,0.534482,0.025056,0.031148,-0.010469,up
0.815387,-0.003721,0.524234,0.020251,-0.014673,-0.005063,up
0.817705,-0.003355,0.521733,0.026343,-0.032264,-0.003947,up
0.817095,-0.002684,0.524661,0.031492,-0.025657,-0.003432,up
0.817217,-0.003904,0.526125,0.035267,-0.043934,-0.005406,up
0.817827,-0.003782,0.520513,0.027544,-0.031234,-0.005749,up
0.816424,-0.003721,0.524417,0.02763,-0.000772,-0.004634,up
0.81618,-0.005429,0.522587,0.027115,-0.030033,-0.00369,up
0.817522,-0.005185,0.527589,0.029518,-0.013987,-0.003861,up
0.81801,-0.004392,0.524539,0.026429,-0.013214,-0.004548,up
0.849791,-0.015067,0.470005,0.025313,-0.016218,-0.005063,up
0.84912,-0.017995,0.467809,0.025056,-0.008238,-0.009525,up
0.851316,-0.017263,0.468846,0.033637,-0.009267,-0.011756,up
0.852536,-0.018361,0.467992,0.027973,-0.012614,-0.004891,up
0.852719,-0.019337,0.465308,0.029604,-0.026944,-0.008323,up
0.853817,-0.018605,0.465979,0.025056,-0.017076,-0.004376,up
0.855037,-0.017751,0.462136,0.032607,-0.022396,-0.009696,up
0.854305,-0.016836,0.463295,0.031148,-0.029089,-0.007208,up
0.853085,-0.021167,0.467016,0.030204,-0.014158,-0.021624,up
0.855342,-0.017141,0.461343,0.03132,-0.02437,-0.004205,up
0.756522,-0.010797,0.600545,0.033294,-0.045049,-0.001545,up
0.754875,-0.006649,0.612074,0.036125,-0.021195,-0.006779,up
0.755241,-0.007442,0.608048,0.033808,-0.033723,-0.010125,up
0.753899,-0.012261,0.610122,0.023168,-0.035267,-0.00798,up
0.754021,-0.011895,0.610976,0.024455,-0.02231,-0.003861,up
0.754631,-0.009516,0.61061,0.035267,-0.028231,0.00103,up
0.754021,-0.01037,0.614026,0.027888,-0.025399,-0.003432,up
0.75274,-0.010675,0.610854,0.037155,-0.029432,-0.003175,up
0.752984,-0.009577,0.613355,0.03398,-0.02437,-0.009353,up
0.751947,-0.012627,0.610671,0.028488,-0.033122,-0.003604,up
0.673928,-0.00549,0.701622,0.037927,-0.008752,-0.002145,up
0.675453,-0.007259,0.695583,0.035525,-0.023683,-0.002059,up
0.676551,-0.008601,0.697657,0.039729,-0.022911,0.000944,up
0.677161,-0.008967,0.694119,0.030119,-0.025914,-0.004205,up
0.677405,-0.006771,0.696315,0.031749,-0.00103,-0.005749,up
0.677405,-0.007869,0.69662,0.030204,-0.020079,-0.00429,up
0.678259,-0.00732,0.697047,0.020594,-0.027201,-0.005921,up
0.678015,-0.008113,0.697535,0.028145,-0.021624,-0.013729,up
0.678137,-0.008601,0.694241,0.024541,-0.030119,-0.005749,up
0.677954,-0.005917,0.69784,0.039129,-0.018706,-0.008924,up
0.6161,-0.00671,0.75091,0.028059,-0.02231,-0.003175,up
0.61671,-0.009943,0.748165,0.031234,-0.031492,-0.003347,up
0.615063,-0.005612,0.755363,0.026257,-0.018878,-0.008238,up
0.615063,-0.007381,0.746396,0.035525,-0.033379,-0.00532,up
0.613416,-0.008113,0.752679,0.03029,-0.016132,-0.002317,up
0.616161,-0.013359,0.751825,0.028917,-0.024112,-0.005578,up
0.61305,-0.007198,0.750483,0.022053,-0.015102,-0.003261,up
0.615124,-0.00915,0.747616,0.021109,-0.029432,-0.003261,up
0.615124,-0.008662,0.753289,0.028574,-0.01862,-0.005749,up
0.615063,-0.008296,0.751032,0.023769,-0.022568,-0.008838,up
0.55205,-0.007747,0.800015,0.021624,-0.017591,-0.004805,up
0.552477,-0.006771,0.802028,0.019736,-0.013558,-0.006607,up
0.554551,-0.006771,0.796965,0.026429,-0.030891,-0.006865,up
0.552477,-0.007503,0.800869,0.024026,-0.02394,-0.001888,up
0.553209,-0.005795,0.79849,0.035696,-0.024713,-0.004548,up
0.552233,-0.006161,0.799039,0.028059,-0.021366,-0.008838,up
0.552172,-0.00793,0.79971,0.031148,-0.029089,-0.004977,up
0.55266,-0.005368,0.799039,0.038699,-0.020766,-0.002317,up
0.551562,-0.008601,0.801784,0.021538,-0.024627,-0.008838,up
0.551257,-0.008601,0.801357,0.014587,-0.016304,-0.00738,up
0.498248,0.00549,0.834663,0.033208,-0.042818,-0.012185,up
0.498187,0.00671,0.8357,0.010469,-0.00695,-0.009525,up
0.497638,0.005124,0.8357,0.029432,-0.020594,-0.00695,up
0.499468,0.004819,0.83387,0.035696,-0.015188,-0.001888,up
0.504226,0.008784,0.831308,0.045564,-0.029432,-0.007894,up
0.497211,-0.001037,0.837652,0.018191,-0.014673,-0.010726,up
0.499773,-0.001586,0.830942,0.020766,-0.028231,-0.010297,up
0.503311,0.001891,0.831979,0.022911,-0.033036,-0.008752,up
0.500749,0.001159,0.832467,0.017076,-0.028746,-0.005063,up
0.49898,0.003721,0.836127,0.025313,-0.019393,-0.007208,up
0.432002,0.007137,0.871873,0.032607,-0.016561,-0.004891,up
0.432429,0.00671,0.872056,0.02969,-0.019908,-0.00738,up
0.432429,0.004514,0.870409,0.026944,-0.01596,-0.003947,up
0.433344,0.00549,0.87108,0.028145,-0.020422,-0.008752,up
0.433649,0.00488,0.871751,0.030119,-0.024112,-0.00695,up
0.434442,0.004453,0.866383,0.028145,-0.025571,-0.006007,up
0.434503,0.005551,0.873398,0.042132,-0.000257,-0.003861,up
0.432978,0.005429,0.872788,0.026686,-0.017419,-0.008238,up
0.434381,0.003721,0.868762,0.028832,-0.019221,-0.006779,up
0.434991,0.006222,0.871141,0.033294,-0.013644,-0.008581,up
0.620553,0.008235,0.748104,0.043848,-0.03501,-0.010469,up
0.620126,0.007808,0.748775,0.03235,-0.042904,-0.012271,up
0.616527,0.004453,0.749568,0.054488,-0.048739,-0.010211,up
0.61549,0.007015,0.756705,0.019307,-0.014502,-0.011069,up
0.617259,0.006954,0.752984,0.03664,-0.022997,-0.020851,up
0.614697,0.000244,0.751337,0.018449,-0.002917,0.001287,up
0.61976,0.003538,0.742126,0.017076,-0.029003,-0.004119,up
0.617381,0.007869,0.752191,0.046422,-0.042732,-0.005148,up
0.615307,0.006527,0.754631,0.016475,0.013214,0.003089,up
0.618784,0.005429,0.752435,0.005921,0.007809,-0.007208,up
0.690764,0.011712,0.684725,0.036383,-0.008152,-0.009439,up
0.690459,0.010126,0.681004,0.033894,-0.02763,-0.007551,up
0.689178,0.010126,0.682956,0.032865,-0.016647,-0.015531,up
0.689422,0.007869,0.68076,0.034495,-0.031234,-0.012957,up
0.690215,0.008357,0.686616,0.032264,-0.022482,-0.009096,up
0.690032,0.009638,0.680272,0.027459,-0.02497,-0.00738,up
0.690215,0.010065,0.682834,0.024713,-0.021452,-0.00738,up
0.690703,0.006771,0.677161,0.016561,-0.038356,0.003861,up
0.687409,0.00976,0.689178,0.015703,-0.020937,-0.006092,up
0.688141,0.01037,0.684359,0.030548,-0.025313,-0.009353,up
0.753777,0.002928,0.60573,0.027544,-0.03029,-0.005406,up
0.754753,0.002501,0.611891,0.018792,-0.035096,-0.016904,up
0.756156,0.003477,0.611464,0.01862,-0.017162,-0.007465,up
0.752862,0.003782,0.609085,0.028488,-0.026171,-0.010469,up
0.755302,0.003294,0.61122,0.023168,-0.023597,-0.010297,up
0.759511,0.00488,0.610915,0.021109,-0.02394,-0.007809,up
0.754936,0.002379,0.610427,0.038013,-0.036554,-0.007465,up
0.751947,0.003965,0.613111,0.018449,-0.032607,-0.012356,up
0.751886,0.002135,0.614575,0.028574,-0.026515,-0.010726,up
0.755729,0.000915,0.611342,0.025571,-0.023254,-0.006865,up
0.809836,-0.000732,0.533689,0.026086,-0.029775,-0.00429,up
0.809409,0.000244,0.53558,0.037241,-0.030204,-0.004891,up
0.808921,0.000366,0.535763,0.020422,-0.021195,-0.004376,up
0.808006,-0.000549,0.537532,0.043848,-0.000086,-0.006436,up
0.807213,0.000183,0.538752,0.029861,-0.043247,-0.007294,up
0.809165,0.001891,0.535763,0.030119,-0.019307,-0.009868,up
0.807396,-0.001098,0.538813,0.027459,-0.02497,-0.006693,up
0.808738,-0.001464,0.539911,0.017333,-0.011842,-0.007637,up
0.808433,-0.000061,0.536739,0.026257,-0.025142,-0.009181,up
0.807945,-0.001647,0.535458,0.024884,-0.034066,-0.007294,up
0.861381,-0.01281,0.450668,0.029261,-0.031406,-0.003604,up
0.865102,-0.012383,0.450729,0.044706,-0.016304,-0.013386,up
0.864431,-0.01098,0.451644,0.034409,-0.021023,-0.011842,up
0.861808,-0.010126,0.455304,0.037327,-0.00163,-0.012185,up
0.85888,-0.013969,0.454877,0.024799,-0.022568,-0.0133,up
0.856989,-0.013847,0.451156,0.015188,-0.031492,-0.003003,up
0.858148,-0.013725,0.454938,0.025056,-0.028917,-0.005835,up
0.857843,-0.014091,0.456585,0.022653,-0.029518,-0.006521,up
0.857294,-0.014701,0.457134,0.02128,-0.019307,-0.00369,up
0.856867,-0.013847,0.454328,0.016647,-0.033379,-0.007208,up
0.850035,-0.010065,0.469151,0.025399,-0.040416,-0.006092,up
0.850462,-0.008601,0.470371,0.013043,-0.050627,-0.006264,up
0.846497,-0.007015,0.477081,0.01064,-0.124593,0,up
0.834785,-0.002379,0.495015,0.040158,-0.110693,-0.003776,up
0.823073,-0.003355,0.513559,0.048739,-0.100739,-0.003604,up
0.814289,-0.005856,0.526003,0.048053,-0.088554,-0.005063,up
0.807884,-0.00732,0.5368,0.035181,-0.043934,-0.0133,up
0.806908,-0.008052,0.538142,0.030634,-0.019135,-0.004977,up
0.808738,-0.008845,0.537227,0.02497,-0.021624,-0.004205,up
0.808799,-0.008418,0.537959,0.026515,-0.018277,-0.005749,up
0.805993,-0.007869,0.541924,0.028488,-0.02394,-0.006007,up
0.805505,-0.006527,0.540826,0.032607,-0.024713,-0.007036,up
0.806542,-0.007625,0.54046,0.038185,-0.02703,-0.004719,up
0.806603,-0.008357,0.54168,0.028746,-0.02703,-0.007208,up
0.805993,-0.008174,0.540948,0.029604,-0.023511,-0.001974,up
0.805322,-0.008845,0.541009,0.026086,-0.024284,-0.006521,up
0.805993,-0.008601,0.542473,0.031148,-0.023597,-0.007723,up
0.805078,-0.010126,0.543388,0.025914,-0.027459,-0.005492,up
0.80459,-0.011224,0.543022,0.019307,-0.026257,-0.002145,up
0.804712,-0.009577,0.543693,0.031663,-0.027544,-0.004977,up
0.748165,-0.012078,0.619516,0.057234,0.002145,-0.001716,up
0.753838,-0.028243,0.610854,0.017848,-0.047881,-0.014158,up
0.750544,-0.018971,0.621895,0.03132,-0.020079,-0.012785,up
0.752313,-0.023058,0.614575,0.026858,-0.025571,-0.012013,up
0.751032,-0.023546,0.613904,0.021452,-0.019049,-0.007122,up
0.7503,-0.025498,0.613721,0.015617,-0.020337,-0.004977,up
0.749324,-0.023119,0.6161,0.031492,-0.043934,-0.006693,up
0.751215,-0.022875,0.613477,0.030634,-0.028917,-0.002917,up
0.751215,-0.021472,0.613538,0.026944,-0.017591,-0.002746,up
0.750666,-0.020313,0.616405,0.032092,-0.01965,-0.006607,up
0.741028,-0.02135,0.631167,0.029089,-0.018277,-0.004548,up
0.741882,-0.023851,0.62891,0.02437,-0.022653,-0.005492,up
0.740845,-0.022753,0.63013,0.019822,-0.01965,-0.004634,up
0.741516,-0.021716,0.629764,0.022139,-0.01596,-0.006178,up
0.743651,-0.02013,0.627141,0.037841,-0.030033,-0.004977,up
0.742797,-0.023485,0.628361,0.031148,-0.037241,-0.007294,up
0.741638,-0.024461,0.625921,0.009181,-0.033551,-0.011927,up
0.738893,-0.022997,0.637633,0.033637,-0.029432,-0.007122,up
0.740052,-0.023363,0.631045,0.030634,-0.030376,-0.00532,up
0.738405,-0.021777,0.632997,0.034066,-0.022997,-0.007465,up
0.618601,0.00122,0.751276,0.043676,-0.010297,-0.004033,up
0.620187,0.000366,0.748592,0.025228,-0.027888,-0.00798,up
0.620858,0.001647,0.747128,0.021366,-0.028746,-0.011327,up
0.621834,0.000915,0.749141,0.029003,-0.029947,-0.005835,up
0.62098,0.003416,0.747372,0.024884,-0.018792,-0.005234,up
0.621956,0.002684,0.745725,0.027802,-0.017247,-0.004977,up
0.622139,0.001098,0.74847,0.019135,-0.030548,-0.012185,up
0.620797,0.001647,0.749385,0.023168,-0.026858,-0.00901,up
0.622261,0.003294,0.744932,0.035353,-0.029003,-0.005578,up
0.621712,0.00427,0.746884,0.035267,-0.024112,-0.003861,up
0.565348,0.008784,0.787449,0.013214,-0.023168,-0.003947,up
0.565531,0.012444,0.784948,0.034323,-0.013901,0.021709,up
0.563701,0.009882,0.789584,0.018277,-0.015274,0.000686,up
0.566263,0.011041,0.787144,0.016389,-0.026171,-0.003089,up
0.567178,0.013237,0.786656,0.018792,-0.02763,-0.005148,up
0.565592,0.011651,0.789645,0.016818,-0.027716,-0.008752,up
0.564189,0.013237,0.790438,0.043676,-0.019478,-0.005148,up
0.565409,0.012749,0.791719,0.027287,-0.021881,-0.007723,up
0.566141,0.012871,0.78873,0.028403,-0.01862,-0.005921,up
0.566446,0.013542,0.788364,0.026686,-0.0133,-0.006865,up
0.502335,0.023363,0.833321,0.029861,0.002746,-0.004462,up
0.505202,0.02379,0.829234,0.034838,-0.016647,-0.000515,up
0.505873,0.022875,0.833138,0.030634,-0.019822,-0.007294,up
0.507093,0.022021,0.831064,0.022997,-0.018706,-0.006607,up
0.509777,0.022387,0.826794,0.001201,-0.02231,-0.007894,up
0.509289,0.022631,0.830088,0.021967,-0.017848,-0.005921,up
0.510692,0.022875,0.829478,0.026086,-0.012528,-0.004719,up
0.510631,0.022753,0.826184,0.024627,-0.027459,-0.006779,up
0.5124,0.023607,0.824659,0.02969,-0.028832,-0.008581,up
0.510631,0.023241,0.829295,0.030634,-0.023426,-0.008238,up
-0.743712,-0.025742,0.658556,0.031234,-0.034838,-0.010812,down
-0.744444,-0.025254,0.65758,0.028832,-0.031835,-0.021881,down
-0.744322,-0.029158,0.658312,0.082805,-0.091729,-0.00369,down
-0.74542,-0.028731,0.65392,-0.012099,-0.023254,-0.021967,down
-0.752923,-0.029768,0.650077,0.012271,-0.019393,0.012271,down
-0.751459,-0.030439,0.650443,0.024884,-0.025399,0.019822,down
-0.749385,-0.032574,0.650138,0.026171,-0.022911,-0.000944,down
-0.751337,-0.029036,0.648064,0.036468,-0.030462,-0.011241,down
-0.75213,-0.030256,0.64782,0.037327,-0.03235,-0.013729,down
-0.753777,-0.029219,0.646539,0.03561,-0.035267,-0.00635,down
-0.557723,-0.00122,0.816302,0.000086,-0.030033,0.008409,down
-0.558638,-0.002074,0.816363,0.022053,-0.04402,-0.009439,down
-0.560834,0.000854,0.815021,0.019564,-0.037412,-0.001974,down
-0.564311,0.001647,0.814167,0.021366,-0.037241,-0.007809,down
-0.56669,0.00183,0.812154,0.029518,-0.020422,-0.002574,down
-0.570167,0.00244,0.813862,0.04565,-0.008409,0.011155,down
-0.562908,0.000427,0.815631,0.035696,-0.047624,-0.000086,down
-0.564067,0.000244,0.814533,0.041445,-0.055175,-0.014845,down
-0.565714,0.000305,0.811971,0.035954,-0.027888,-0.009096,down
-0.566812,0.000366,0.812093,0.034409,-0.030805,-0.006007,down
-0.782447,0.00183,0.610549,0.020851,-0.023769,-0.000944,down
-0.783972,0.001159,0.61122,0.040158,-0.033208,-0.004119,down
-0.782447,0,0.610793,0.026772,-0.029518,-0.006521,down
-0.781227,0.000305,0.61061,0.04728,-0.031663,-0.003432,down
-0.785314,-0.000061,0.609268,0.013043,-0.035181,-0.00635,down
-0.785924,0.001769,0.608658,0.043076,-0.028574,-0.000515,down
-0.785436,0.001464,0.608292,0.025571,-0.026515,0.002059,down
-0.78507,0.001464,0.60939,0.032779,-0.034924,0.003175,down
-0.786046,-0.001342,0.607682,0.022224,-0.02763,0.005749,down
-0.785131,-0.001647,0.607926,0.026515,-0.026343,-0.002059,down
-0.793244,-0.016104,0.597678,0.000172,-0.025228,-0.002403,down
-0.795379,-0.01342,0.594933,0.015789,-0.014587,0.013558,down
-0.792878,-0.015982,0.595421,0.004634,-0.020508,-0.001802,down
-0.790987,-0.015372,0.594872,0.001459,-0.028832,-0.010297,down
-0.793244,-0.014396,0.594994,-0.005578,-0.02969,-0.010898,down
-0.796233,-0.013176,0.592493,0.005148,-0.010898,0.004376,down
-0.793854,-0.014518,0.595116,0.026858,-0.029861,-0.003175,down
-0.796294,-0.014762,0.594445,0.023511,-0.016733,0.005492,down
-0.796843,-0.014396,0.595055,0.017591,-0.008495,0.003604,down
-0.796721,-0.013603,0.595116,0.015531,-0.010812,0.004977,down
-0.935862,0.011407,0.360327,0.061524,-0.009782,0.017162,down
-0.93391,0.01159,0.360876,0.004119,0.000172,0.010898,down
-0.925065,0.010919,0.368196,0.004376,-0.044363,-0.019822,down
-0.930677,0.012627,0.364658,0.00901,-0.015789,-0.000772,down
-0.9272,0.014274,0.36539,-0.007465,-0.021795,-0.008152,down
-0.930921,0.014274,0.365085,0.02866,-0.021366,0.003261,down
-0.931897,0.013969,0.364536,0.032521,0.005921,0.000515,down
-0.928847,0.01098,0.370148,0.038185,-0.001116,-0.001802,down
-0.93208,0.015738,0.362706,0.064528,-0.017848,0.022224,down
-0.928359,0.014945,0.368989,0.01433,-0.015274,0.014502,down
-0.90829,0.007991,0.41236,0.034152,0.580836,0.031663,down
-0.854,0.011834,0.510936,0.075597,0.417285,0.021709,down
-0.812947,0,0.572302,-0.026,0.077571,0.021366,down
-0.799405,0.008784,0.595909,0.062211,0.04299,0.000601,down
-0.786717,0.008357,0.60695,0.042475,-0.018449,0.017848,down
-0.783606,0.004758,0.610061,0.040845,-0.047795,0.021538,down
-0.791902,-0.001281,0.604022,0.026086,-0.042818,0.010983,down
-0.793122,-0.003172,0.600606,0.024198,-0.03132,0.007894,down
-0.795928,-0.00549,0.597739,0.041274,-0.036898,-0.004205,down
-0.797941,-0.007015,0.593225,0.013901,-0.040416,-0.021023,down
-0.668072,-0.014701,0.728157,0.012271,-0.041531,-0.013129,down
-0.669292,-0.014518,0.728401,0.00266,-0.031406,-0.006865,down
-0.671488,-0.013847,0.731268,0.078085,-0.023769,-0.01596,down
-0.674294,-0.014396,0.727608,0.038871,-0.037841,-0.013644,down
-0.675453,-0.014213,0.727181,0.060752,-0.035439,-0.002231,down
-0.679845,-0.012749,0.72468,0.029175,-0.014931,0.010812,down
-0.678625,-0.014152,0.725168,0.018706,-0.018191,0.002917,down
-0.674477,-0.014823,0.725473,0.018964,-0.009868,-0.000086,down
-0.676185,-0.015982,0.725473,0.031663,-0.026429,-0.00695,down
-0.677161,-0.015738,0.7259,0.024541,-0.030376,-0.010726,down
-0.476288,-0.010431,0.865529,0.019908,-0.029775,0.005835,down
-0.478789,-0.011285,0.865773,0.023855,-0.040416,0.00798,down
-0.478728,-0.013603,0.862784,0.027459,-0.037069,-0.002317,down
-0.4819,-0.015311,0.861198,0.026343,-0.035267,0.021366,down
-0.482571,-0.013481,0.859429,0.020337,-0.03561,-0.006607,down
-0.499712,-0.018056,0.858026,0.031577,-0.05835,-0.012957,down
-0.490928,-0.014274,0.858087,0.058264,-0.016561,0.014759,down
-0.490257,-0.011407,0.857477,0.014931,-0.043591,-0.002145,down
-0.49227,-0.009394,0.856562,0.024541,-0.042475,0.00635,down
-0.490867,-0.010736,0.856257,0.031063,-0.030719,0.000601,down
-0.790377,-0.026962,0.603534,0.023168,-0.02703,-0.007723,down
-0.790255,-0.026657,0.603595,0.029775,-0.028574,-0.000601,down
-0.794952,-0.02623,0.604022,0.038871,-0.014587,0.028403,down
-0.784338,-0.030805,0.607255,-0.015274,-0.042475,-0.026686,down
-0.784826,-0.030622,0.60817,0.049426,-0.027115,-0.016818,down
-0.784277,-0.02501,0.611647,0.00163,-0.008409,-0.011584,down
-0.783789,-0.02928,0.612318,0.044105,-0.036812,-0.025571,down
-0.785009,-0.028487,0.612013,0.031921,-0.023511,-0.004548,down
-0.786656,-0.027938,0.608597,0.008581,-0.00635,0.015274,down
-0.785192,-0.029097,0.611037,0.022053,-0.019908,0.002317,down
-0.788425,-0.025986,0.624579,0.047023,-0.041188,-0.008495,down
-0.788974,-0.027633,0.606096,0.026686,-0.026858,-0.021795,down
-0.787571,-0.026596,0.606706,0.025914,-0.025056,0.00103,down
-0.787693,-0.026291,0.606889,0.010726,-0.029089,-0.004634,down
-0.787815,-0.026779,0.606889,0.033294,-0.034152,-0.003347,down
-0.787632,-0.027511,0.605303,0.027459,-0.031234,-0.010383,down
-0.788242,-0.026657,0.604083,0.012785,-0.032178,-0.009782,down
-0.789828,-0.026108,0.603595,0.013987,-0.020594,-0.020851,down
-0.791963,-0.025376,0.604998,0.003175,-0.018964,0.007723,down
-0.793793,-0.023729,0.603473,0.014673,-0.019393,0.012785,down
-0.928359,-0.009882,0.371612,0.054488,-0.024627,0.000858,down
-0.926285,-0.010492,0.375028,0.000257,-0.018106,0.021881,down
-0.926163,-0.010797,0.375577,0.00103,-0.024884,-0.001201,down
-0.926529,-0.011529,0.390339,0.024713,-0.016304,0.004033,down
-0.926102,-0.01281,0.376492,0.038957,-0.020251,0.004719,down
-0.926041,-0.01342,0.377529,0.040845,-0.026772,0.00901,down
-0.926529,-0.015311,0.37454,-0.005663,-0.015274,0.021795,down
-0.922137,-0.016592,0.379054,0.016389,-0.028317,-0.007551,down
-0.929335,-0.016897,0.374357,0.016904,-0.013987,0.007294,down
-0.927078,-0.017446,0.376126,0.02394,-0.025828,0.001545,down
-0.928969,-0.016714,0.369111,-0.01802,-0.012528,0.021109,down
-0.927322,-0.018971,0.370941,0.073194,-0.031835,-0.000601,down
-0.926163,-0.017568,0.369721,0.021709,-0.023254,-0.008752,down
-0.930128,-0.019154,0.371673,0.014416,-0.026772,0.021624,down
-0.929152,-0.018666,0.369782,0.043162,-0.000343,0.006007,down
-0.924394,-0.020496,0.373686,0.019393,-0.034495,-0.011842,down
-0.926163,-0.020069,0.371612,0.017333,-0.035696,-0.01433,down
-0.930433,-0.016531,0.369233,0.010297,-0.016733,0.010726,down
-0.930982,-0.01891,0.368989,0.020508,-0.016389,0.004033,down
-0.929701,-0.019337,0.368867,0.037327,-0.04299,-0.000686,down
-0.982222,-0.051911,0.186843,0.012356,-0.023511,-0.018363,down
-0.987285,-0.050386,0.184342,0.033808,-0.014502,0.024284,down
-0.981978,-0.054778,0.189344,0.029775,-0.043505,0.001201,down
-0.982283,-0.055815,0.187941,0.026686,-0.00103,-0.002574,down
-0.983076,-0.056242,0.188917,0.030719,-0.032693,0.003347,down
-0.982405,-0.0549,0.187819,0.000086,-0.021023,-0.019564,down
-0.984601,-0.051606,0.189466,0.032779,-0.015789,0.008066,down
-0.986919,-0.052704,0.188124,0.032006,-0.043934,0.021366,down
-0.986004,-0.053131,0.185623,0.020165,-0.013214,0.003003,down
-0.983625,-0.053497,0.171776,0.017848,-0.041617,-0.00266,down
-0.795684,-0.074725,0.596397,0.026601,-0.028574,-0.002317,down
-0.797758,-0.072041,0.596641,0.018106,-0.031492,0.00695,down
-0.795989,-0.073627,0.597007,0.015274,-0.034409,0.012356,down
-0.796355,-0.075457,0.594262,0.004376,-0.041188,0.005406,down
-0.797148,-0.077409,0.59048,-0.021023,-0.025399,0.001201,down
-0.799344,-0.079239,0.590968,0.039901,-0.002231,-0.012528,down
-0.800259,-0.076738,0.597983,0.064785,-0.038356,0.021967,down
-0.794037,-0.082045,0.590785,-0.023683,-0.007122,0.009096,down
-0.791109,-0.086254,0.593774,0.028145,-0.005578,-0.017419,down
-0.792817,-0.084851,0.597068,0.035267,-0.029604,-0.013214,down
-0.577914,-0.039711,0.803065,0.023511,-0.024627,-0.000086,down
-0.576145,-0.040931,0.803431,0.043591,-0.001287,-0.005063,down
-0.593347,-0.041663,0.802333,0.00901,-0.036383,-0.012785,down
-0.576145,-0.040199,0.803614,0.040244,-0.04299,-0.016733,down
-0.580476,-0.038064,0.800503,0.023683,-0.014673,-0.004548,down
-0.582062,-0.038857,0.801052,0.030719,-0.028145,0.003518,down
-0.581757,-0.040809,0.799649,0.028231,-0.027201,-0.006865,down
-0.582489,-0.041541,0.800076,0.03295,-0.023511,-0.005148,down
-0.586881,-0.041419,0.799527,0.03664,-0.032693,-0.004977,down
-0.5856,-0.043127,0.798917,0.045221,-0.026429,-0.002746,down
-0.482205,-0.043432,0.864797,0.023082,-0.036812,-0.006436,down
-0.484218,-0.035502,0.862906,0.000686,-0.027459,0.055947,down
-0.482205,-0.050203,0.860161,0.070878,-0.057234,0.006264,down
-0.488427,-0.050935,0.858453,0.02763,-0.042389,-0.017505,down
-0.499468,-0.051606,0.859978,0.086495,-0.03561,0.011412,down
-0.495808,-0.051789,0.858331,0.051485,-0.037841,0.009611,down
-0.495381,-0.055937,0.856257,0.040501,-0.042046,-0.008667,down
-0.496052,-0.057767,0.85339,0.039043,-0.023168,0.000944,down
-0.499041,-0.073078,0.857233,0.09499,-0.11095,-0.1046,down
-0.506178,-0.044286,0.842654,-0.050455,0.006007,-0.013729,down
-0.872422,-0.07259,0.479521,0.017076,-0.001287,-0.00429,down
-0.871751,-0.072895,0.479948,0.031406,-0.023769,-0.011756,down
-0.8723,-0.070638,0.480985,0.035181,-0.024198,-0.021795,down
-0.874008,-0.069418,0.482571,0.032178,-0.000601,0.001116,down
-0.873398,-0.068198,0.481717,0.021023,-0.022396,-0.021624,down
-0.873581,-0.068137,0.479765,0.012442,-0.018277,-0.002145,down
-0.872666,-0.068015,0.479826,0.024455,-0.030033,-0.004033,down
-0.870958,-0.068991,0.480314,0.018363,-0.026257,-0.006865,down
-0.871141,-0.070089,0.482266,0.018706,-0.029003,-0.000858,down
-0.873642,-0.06954,0.479155,0.013815,-0.041445,-0.021195,down
-0.957517,-0.05673,0.288469,0.027201,-0.027716,-0.00695,down
-0.956846,-0.05612,0.288042,0.017505,-0.02394,-0.004033,down
-0.957456,-0.057279,0.288713,-0.004205,-0.02068,-0.002746,down
-0.956114,-0.056913,0.289262,0.037069,-0.005406,-0.01064,down
-0.957761,-0.056913,0.290421,0.050369,-0.020508,-0.003003,down
-0.95526,-0.055937,0.288957,0.034838,-0.025742,-0.0127,down
-0.956541,-0.055449,0.290726,0.042218,-0.030805,-0.008838,down
-0.957273,-0.054412,0.289994,0.033637,-0.028059,-0.001459,down
-0.957395,-0.054168,0.290421,0.029947,-0.031148,0.003776,down
-0.958005,-0.053985,0.288774,0.005749,-0.018964,0.005234,down
-0.962519,-0.054961,0.273158,0.038356,-0.023855,0.001802,down
-0.963678,-0.055327,0.273097,0.092501,-0.034495,0.014073,down
-0.962214,-0.057889,0.272426,0.039901,-0.030548,-0.010211,down
-0.96075,-0.056059,0.272792,0.000944,-0.02394,-0.016904,down
-0.967155,-0.053131,0.267363,0.050713,-0.011241,0.034924,down
-0.96319,-0.059536,0.271755,-0.000858,-0.012271,-0.008838,down
-0.962824,-0.053863,0.270718,0.051485,-0.026429,0.005921,down
-0.964532,-0.051179,0.271023,0.029346,-0.016733,0.007465,down
-0.963617,-0.051606,0.272121,0.050627,-0.026515,0.009096,down
-0.96319,-0.052094,0.272304,0.057148,-0.024026,0.003432,down
-0.998082,-0.035868,0.109739,0.047967,-0.016304,0.006436,down
-0.996923,-0.035685,0.112057,0.032092,-0.01862,0.009954,down
-0.995337,-0.035563,0.111996,0.013987,-0.004376,-0.005835,down
-0.995764,-0.036783,0.119011,-0.021881,-0.013729,-0.011584,down
-0.993446,-0.037149,0.124379,0.042046,-0.027802,-0.008924,down
-0.997533,-0.038003,0.11834,0.043419,-0.01862,-0.001888,down
-0.997411,-0.037576,0.116022,-0.002403,-0.006521,-0.014244,down
-0.998448,-0.037576,0.116266,0.001545,-0.010898,0.007036,down
-0.995825,-0.036295,0.119377,0.024541,-0.012957,-0.004033,down
-0.995642,-0.038796,0.121878,0.02231,-0.031663,0.002746,down
-0.095038,0.631289,0.735111,0.028488,-0.025485,-0.008495,left
-0.094184,0.630679,0.736148,0.031234,-0.024799,-0.00798,left
-0.094733,0.629398,0.737551,0.021795,-0.026772,-0.006521,left
-0.094855,0.62952,0.737002,0.023511,-0.026,-0.00738,left
-0.09455,0.630252,0.735965,0.026257,-0.043676,-0.005492,left
-0.095099,0.631167,0.735172,0.022053,-0.024541,-0.005749,left
-0.094001,0.631716,0.734928,0.025571,-0.022396,-0.006693,left
-0.093147,0.631838,0.735233,0.035439,-0.027544,-0.005063,left
-0.094672,0.630435,0.736941,0.028231,-0.02437,-0.00635,left
-0.093635,0.630008,0.737612,0.017505,-0.020251,-0.004462,left
-0.087596,0.613538,0.75152,0.025828,-0.023426,-0.002231,left
-0.086193,0.612135,0.752679,0.013901,-0.023769,-0.00738,left
-0.086742,0.613294,0.752008,0.024198,-0.02231,-0.005406,left
-0.087291,0.61427,0.751276,0.018191,-0.025313,-0.008323,left
-0.085461,0.61488,0.75091,0.022911,-0.01965,-0.003947,left
-0.085583,0.614636,0.751276,0.030719,-0.024026,-0.002145,left
-0.086132,0.614209,0.751581,0.024799,-0.021881,-0.003432,left
-0.087169,0.614331,0.751215,0.021195,-0.025485,-0.004891,left
-0.085888,0.615856,0.750422,0.02703,-0.026944,-0.003947,left
-0.086071,0.615307,0.750971,0.025742,-0.01965,-0.004977,left
-0.104005,0.433161,0.86803,0.023511,-0.025142,-0.00266,left
-0.102358,0.436028,0.86864,0.030376,-0.016304,0.002832,left
-0.106811,0.440847,0.86132,0.021366,-0.042475,-0.018964,left
-0.108702,0.430111,0.874801,0.013987,-0.003947,0.012614,left
-0.103822,0.440176,0.86376,0.040244,-0.04831,-0.00532,left
-0.111264,0.429196,0.868823,-0.014416,-0.019908,-0.012185,left
-0.105591,0.440176,0.865285,0.019736,-0.00695,-0.001545,left
-0.110288,0.446703,0.861442,0.011241,-0.019307,-0.009868,left
-0.107787,0.445361,0.862601,0.005234,-0.011327,-0.014931,left
-0.1037,0.449265,0.854732,0.064528,-0.070449,0.003776,left
-0.121268,0.338733,0.912377,0.029432,-0.017591,-0.005063,left
-0.121024,0.33672,0.910852,0.014845,-0.020251,-0.007208,left
-0.119926,0.338428,0.910791,0.00635,-0.01862,-0.006779,left
-0.11834,0.34343,0.90829,0.014673,-0.025228,-0.003861,left
-0.117913,0.345321,0.907497,0.018449,-0.027115,-0.006607,left
-0.116266,0.346419,0.906948,0.02068,-0.026343,-0.004891,left
-0.118767,0.348432,0.907192,0.02437,-0.02497,-0.007294,left
-0.11834,0.349774,0.907924,0.032006,-0.010383,-0.007723,left
-0.11712,0.347395,0.907009,0.015102,-0.043762,-0.005578,left
-0.117669,0.35014,0.906643,0.019736,-0.019135,-0.002059,left
-0.097844,0.515389,0.822524,0.027459,-0.026086,-0.001888,left
-0.098698,0.517341,0.821243,0.029518,-0.02128,-0.00369,left
-0.099064,0.516731,0.821121,0.029947,-0.027716,-0.003518,left
-0.099003,0.516121,0.820999,0.027373,-0.022653,-0.00429,left
-0.09821,0.516304,0.820633,0.02866,-0.025571,-0.003861,left
-0.10004,0.51606,0.820755,0.043333,-0.024884,-0.004548,left
-0.099613,0.516182,0.820938,0.002832,-0.023254,-0.004719,left
-0.099186,0.516304,0.820755,0.024198,-0.025228,-0.005578,left
-0.100467,0.516304,0.820877,0.034495,-0.027115,-0.001373,left
-0.099003,0.515572,0.820938,0.037069,-0.029432,-0.003604,left
-0.119621,0.607316,0.752496,0.02703,-0.019993,-0.003175,left
-0.12017,0.606584,0.752923,0.032006,-0.023855,0.001373,left
-0.121085,0.606157,0.75213,0.031406,-0.044105,0.008581,left
-0.126575,0.603534,0.757437,0.029175,-0.015274,0.010726,left
-0.12383,0.605364,0.753411,0.022653,-0.025056,-0.007637,left
-0.124745,0.60512,0.753716,0.018792,-0.021452,-0.009181,left
-0.124257,0.605669,0.753411,0.030119,-0.019908,-0.001459,left
-0.126941,0.602497,0.755546,0.004376,-0.005492,-0.010125,left
-0.121756,0.605608,0.753167,0.019221,-0.022653,-0.003261,left
-0.124318,0.608292,0.751398,0.020165,-0.032264,-0.01064,left
-0.119255,0.611952,0.747738,0.038185,-0.023168,0.00163,left
-0.120902,0.612074,0.747494,0.03029,-0.03029,-0.00635,left
-0.121695,0.612257,0.747433,0.034323,-0.01802,-0.003776,left
-0.120048,0.610183,0.748897,0.034752,-0.024026,-0.003089,left
-0.119377,0.608963,0.74969,0.033122,-0.019478,-0.003003,left
-0.120475,0.60878,0.749629,0.029346,-0.025571,-0.007294,left
-0.116388,0.60878,0.750178,0.04033,-0.026944,-0.000772,left
-0.122244,0.608841,0.749629,0.027716,-0.02866,-0.003604,left
-0.118035,0.60634,0.751459,0.024112,-0.023426,-0.002317,left
-0.119316,0.609634,0.749385,0.032264,-0.027287,-0.001716,left
-0.123342,0.389546,0.885354,0.008323,-0.02866,-0.007723,left
-0.120658,0.385886,0.888099,0.01536,-0.010898,-0.005835,left
-0.116815,0.391193,0.884622,0.014845,-0.025914,-0.007465,left
-0.114985,0.389302,0.884866,0.0133,-0.020337,-0.00738,left
-0.117547,0.394609,0.885903,0.012528,-0.012957,-0.008752,left
-0.110044,0.401136,0.880413,0.010297,-0.031577,-0.017419,left
-0.113338,0.398147,0.881389,-0.029518,-0.007723,-0.014073,left
-0.108336,0.411994,0.876082,0.004462,-0.015617,-0.00695,left
-0.106567,0.414068,0.876021,0.008495,-0.007465,-0.009782,left
-0.102663,0.41663,0.873337,0.003003,-0.015274,-0.013386,left
-0.1037,0.438041,0.86254,0.026601,-0.004205,-0.003261,left
-0.101992,0.438895,0.861991,0.019478,-0.01596,-0.006607,left
-0.101077,0.440298,0.861259,0.022997,-0.000686,-0.007208,left
-0.101748,0.43859,0.862296,0.023683,-0.020766,-0.00429,left
-0.099918,0.440298,0.861198,0.028145,-0.021366,-0.003518,left
-0.101199,0.441091,0.861747,0.019393,-0.014073,-0.00532,left
-0.095404,0.437736,0.861198,0.035696,-0.027115,0.021795,left
-0.097539,0.437858,0.862479,0.015789,-0.015016,-0.005749,left
-0.097905,0.437126,0.863211,0.018535,-0.019221,-0.00635,left
-0.095648,0.441091,0.862662,0.06161,-0.036383,0.003089,left
-0.120109,0.321287,0.910608,-0.017676,-0.011241,0.004719,left
-0.119072,0.331169,0.909937,0.004376,-0.022911,-0.006865,left
-0.118035,0.335683,0.909632,0.011498,-0.021709,-0.006436,left
-0.115473,0.339221,0.907741,0.020851,-0.027287,-0.008667,left
-0.115839,0.338855,0.907009,0.018449,-0.020594,-0.004548,left
-0.115778,0.341783,0.906338,0.000343,-0.028832,-0.00369,left
-0.117059,0.342027,0.906826,0.015102,-0.019478,-0.008495,left
-0.117608,0.345077,0.906094,0.016647,-0.018535,-0.005234,left
-0.116083,0.345138,0.90646,0.012785,-0.018191,-0.007637,left
-0.116022,0.347029,0.906277,0.015703,-0.019993,-0.006865,left
-0.11163,0.35685,0.901641,0.031663,-0.025571,-0.002145,left
-0.110654,0.357826,0.901519,0.025914,-0.025571,-0.004033,left
-0.112118,0.354471,0.904325,0.010125,-0.01536,-0.006865,left
-0.112423,0.355996,0.903166,0.017162,-0.023082,-0.006436,left
-0.112179,0.355752,0.902922,0.01862,-0.022224,-0.001888,left
-0.112118,0.3599,0.902251,0.031921,-0.027973,-0.000686,left
-0.110593,0.359473,0.902373,0.033294,-0.035868,-0.003947,left
-0.116449,0.358131,0.903349,0.02969,-0.00163,0.000944,left
-0.113155,0.359412,0.902373,0.03295,-0.025571,-0.003604,left
-0.114558,0.354593,0.904142,0.015102,-0.017848,-0.003261,left
-0.075274,0.562603,0.791048,0.035096,-0.026858,-0.002488,left
-0.076738,0.561627,0.79239,0.022911,-0.020251,-0.003432,left
-0.07564,0.561688,0.792024,0.034924,-0.02497,-0.003089,left
-0.076921,0.560407,0.792695,0.02969,-0.043848,-0.002231,left
-0.076738,0.561017,0.793183,0.023082,-0.02068,-0.004033,left
-0.075579,0.560834,0.793427,0.03029,-0.022997,-0.00369,left
-0.076311,0.559248,0.794281,0.020337,-0.01699,-0.003518,left
-0.075701,0.55998,0.793915,0.025914,-0.02334,-0.00429,left
-0.075091,0.55998,0.794342,0.024627,-0.022997,-0.004977,left
-0.075396,0.560712,0.793366,0.027544,-0.027716,-0.005835,left
-0.078995,0.554856,0.794586,0.031148,-0.026515,-0.004205,left
-0.07869,0.555283,0.794281,0.030891,-0.025657,-0.002231,left
-0.078324,0.555832,0.794281,0.032693,-0.022997,-0.00266,left
-0.079727,0.554063,0.795806,0.026772,-0.022482,-0.004119,left
-0.078873,0.55449,0.795623,0.032178,-0.026858,-0.005663,left
-0.078995,0.554124,0.795501,0.024198,-0.020337,-0.005063,left
-0.079971,0.55327,0.796233,0.028317,-0.023511,-0.004119,left
-0.079727,0.553026,0.796355,0.027544,-0.025828,-0.003518,left
-0.079056,0.55327,0.795989,0.028145,-0.025485,-0.005234,left
-0.080581,0.552294,0.796965,0.027373,-0.042732,-0.005921,left
-0.08723,0.531737,0.810568,0.02394,-0.00163,-0.004548,left
-0.086803,0.529541,0.811117,0.022568,-0.043762,-0.005749,left
-0.085949,0.532652,0.809836,0.031921,-0.029518,-0.005492,left
-0.087718,0.531981,0.810446,0.018706,-0.025657,-0.008066,left
-0.085766,0.534055,0.808921,0.026772,-0.043934,-0.003003,left
-0.082838,0.533445,0.809226,0.028059,-0.018706,-0.002317,left
-0.084851,0.530395,0.81069,0.043848,-0.017162,-0.005578,left
-0.084119,0.53375,0.80947,0.02969,-0.02437,-0.006865,left
-0.085339,0.533262,0.810263,0.03398,-0.02763,-0.004033,left
-0.084851,0.534055,0.809104,0.029432,-0.027459,-0.004805,left
-0.155306,0.28609,0.923296,0.011584,-0.001116,-0.005148,left
-0.155184,0.29036,0.922076,0.010898,-0.024284,-0.006779,left
-0.154086,0.290055,0.921466,0.01433,-0.019049,-0.00635,left
-0.152988,0.294386,0.919758,0.024541,-0.026429,-0.004548,left
-0.152073,0.29524,0.919087,0.02394,-0.027459,-0.005663,left
-0.152256,0.297375,0.919026,0.02068,-0.025828,-0.007208,left
-0.151768,0.298961,0.918294,0.019822,-0.024713,-0.006521,left
-0.153354,0.298473,0.919575,0.019049,-0.024627,-0.006007,left
-0.152805,0.300303,0.918599,0.02068,-0.026086,-0.005148,left
-0.152378,0.302255,0.917745,0.024799,-0.022224,-0.002832,left
-0.147437,0.314577,0.916342,0.020251,-0.043934,-0.005663,left
-0.146278,0.315309,0.916403,0.019736,-0.021023,-0.005921,left
-0.145424,0.316712,0.916708,0.031148,-0.026257,-0.001974,left
-0.145912,0.317261,0.916159,0.029175,-0.02394,-0.005663,left
-0.145546,0.31659,0.915427,0.024884,-0.021881,-0.00429,left
-0.145973,0.317749,0.915854,0.02394,-0.043419,-0.005921,left
-0.145851,0.31842,0.915,0.027459,-0.025142,-0.00369,left
-0.145973,0.318298,0.914878,0.02969,-0.026515,-0.001802,left
-0.145851,0.318969,0.914512,0.02334,-0.026515,-0.003261,left
-0.145241,0.318847,0.914512,0.02866,-0.026343,-0.003947,left
-0.069723,0.598349,0.762622,0.026086,-0.018449,-0.006436,left
-0.07259,0.599325,0.762256,0.020079,-0.021624,-0.007894,left
-0.069906,0.602985,0.759755,0.032264,-0.026944,-0.004977,left
-0.068991,0.602802,0.759999,0.02703,-0.023082,-0.005234,left
-0.069601,0.601887,0.760731,0.025657,-0.031063,-0.007036,left
-0.0732,0.599996,0.761585,0,-0.024455,-0.008924,left
-0.07259,0.599996,0.761219,0.028403,-0.043676,-0.006607,left
-0.07442,0.59841,0.762927,0.023082,-0.020251,-0.007036,left
-0.072651,0.599325,0.762073,0.022396,-0.020851,-0.005234,left
-0.073749,0.598898,0.762317,0.026429,-0.019908,-0.006693,left
-0.076494,0.592798,0.769454,0.022825,-0.018964,-0.00695,left
-0.075518,0.59292,0.769454,0.02497,-0.02128,-0.006178,left
-0.076067,0.593957,0.769149,0.030033,-0.025313,-0.003347,left
-0.076494,0.592615,0.769942,0.029518,-0.027802,-0.005148,left
-0.075213,0.592554,0.769698,0.029518,-0.02334,-0.005492,left
-0.075213,0.592737,0.76982,0.025142,-0.023426,-0.005921,left
-0.075396,0.591822,0.770064,0.031063,-0.024713,-0.005663,left
-0.075945,0.591883,0.770064,0.031663,-0.025313,-0.005749,left
-0.075457,0.592249,0.770308,0.022997,-0.025742,-0.006264,left
-0.075762,0.589809,0.771528,0.032264,-0.021023,-0.005063,left
-0.076067,0.590724,0.76921,0.029604,-0.02128,-0.003604,left
-0.076555,0.590724,0.768661,0.029947,-0.018535,-0.003947,left
-0.075884,0.592066,0.768356,0.030719,-0.022911,-0.002917,left
-0.074786,0.590419,0.76982,0.031749,-0.026343,-0.00429,left
-0.074298,0.590541,0.769881,0.026858,-0.026,-0.004977,left
-0.074115,0.590358,0.769576,0.026858,-0.027201,-0.00429,left
-0.07564,0.589504,0.769576,0.024884,-0.023254,-0.005406,left
-0.074298,0.590541,0.768173,0.028832,-0.026429,-0.004548,left
-0.075579,0.589077,0.769637,0.024627,-0.043505,-0.006521,left
-0.076494,0.591761,0.768173,0.030719,-0.023168,-0.005406,left
-0.085705,0.711016,0.66185,0.038099,-0.024284,-0.00103,left
-0.083509,0.708271,0.66429,0.040931,-0.018449,0.020594,left
-0.084912,0.706685,0.665937,0.02969,-0.015703,-0.003604,left
-0.084241,0.70516,0.667584,0.031749,-0.028917,-0.007036,left
-0.086498,0.704245,0.668621,0.013644,-0.02866,-0.009868,left
-0.083997,0.707478,0.665327,0.038013,-0.02497,-0.002488,left
-0.085095,0.70516,0.66734,0.032178,-0.021709,-0.002832,left
-0.084912,0.705404,0.667645,0.029775,-0.017934,-0.005063,left
-0.083997,0.70455,0.668865,0.025828,-0.033036,-0.013901,left
-0.082777,0.702598,0.670817,0.035439,-0.026772,-0.006521,left
-0.169824,-0.851438,0.506727,0.027716,-0.022997,-0.005663,right
-0.16958,-0.852536,0.508435,0.024799,-0.013043,0.006436,right
-0.169763,-0.852292,0.509594,0.013729,-0.013901,-0.00429,right
-0.171898,-0.84973,0.512583,0.020251,-0.03235,-0.011842,right
-0.16897,-0.847717,0.512461,0.0393,-0.025828,-0.007465,right
-0.173789,-0.847778,0.511851,0.025657,-0.023426,0.016218,right
-0.169092,-0.847656,0.512278,0.032264,-0.022825,0.001974,right
-0.168604,-0.846985,0.512156,-0.021795,-0.034752,-0.02394,right
-0.172264,-0.847229,0.514474,0.049769,-0.016904,0.007465,right
-0.173118,-0.848754,0.512888,0.025742,-0.021624,-0.003432,right
-0.144021,-0.598593,0.78507,0.028917,-0.02068,-0.000343,right
-0.136579,-0.598288,0.78812,0.025657,-0.0393,-0.011155,right
-0.140727,-0.597373,0.789096,0.021195,-0.002231,-0.005148,right
-0.142435,-0.595787,0.787022,0.028574,-0.026601,-0.005749,right
-0.14396,-0.599325,0.788913,0.013472,-0.028488,-0.011584,right
-0.145302,-0.596214,0.784765,0.033894,-0.02437,0.003003,right
-0.145302,-0.596336,0.786168,0.037241,-0.023597,-0.013214,right
-0.146339,-0.598593,0.785985,0.041874,-0.025828,-0.015102,right
-0.14762,-0.598837,0.785558,0.052858,-0.008667,0.022482,right
-0.143106,-0.600606,0.782142,0.023426,-0.029604,-0.017676,right
-0.127307,-0.453535,0.874862,0.035525,-0.033808,-0.012442,right
-0.131516,-0.45567,0.87413,0.038442,-0.023426,-0.007809,right
-0.133041,-0.456829,0.871873,0.03235,-0.035696,-0.012271,right
-0.134688,-0.458964,0.872361,0.031749,-0.025828,-0.003776,right
-0.131211,-0.459391,0.873093,0.04136,-0.022568,-0.005406,right
-0.137494,-0.460672,0.870287,0.034924,-0.014416,-0.021624,right
-0.133956,-0.462441,0.871873,0.034495,-0.025056,0.001459,right
-0.133834,-0.464088,0.869128,0.030548,-0.023769,-0.003089,right
-0.131821,-0.464149,0.869067,0.03132,-0.020766,-0.004376,right
-0.134322,-0.465735,0.869616,0.026257,-0.017419,0.001373,right
-0.107482,-0.336598,0.924638,0.026601,-0.02394,-0.004205,right
-0.106079,-0.337635,0.924455,0.037327,-0.021366,-0.004548,right
-0.107238,-0.339404,0.923235,0.032264,-0.024627,-0.002832,right
-0.107604,-0.339038,0.92354,0.029003,-0.023511,-0.007122,right
-0.106262,-0.33977,0.924211,0.034066,-0.022739,-0.005148,right
-0.107909,-0.34099,0.923601,0.029261,-0.023855,-0.004805,right
-0.106933,-0.340258,0.923296,0.021195,-0.025142,-0.004462,right
-0.107116,-0.34099,0.923418,0.025914,-0.027459,-0.010726,right
-0.108397,-0.340685,0.924211,0.022911,-0.026601,-0.010554,right
-0.108946,-0.340197,0.923662,0.030033,-0.028917,-0.006521,right
-0.115839,-0.347883,0.919514,0.027373,-0.025657,-0.003776,right
-0.115839,-0.34709,0.919392,0.021023,-0.024713,-0.007465,right
-0.111813,-0.346724,0.919758,0.032178,-0.031749,-0.008838,right
-0.116876,-0.346419,0.919331,0.023683,-0.026343,-0.004376,right
-0.115046,-0.346175,0.919941,0.032693,-0.022568,-0.003776,right
-0.115229,-0.346968,0.919453,0.033723,-0.026086,-0.010898,right
-0.116754,-0.348981,0.919697,0.029518,-0.026171,-0.004548,right
-0.116815,-0.348981,0.919941,0.034323,-0.025228,-0.004548,right
-0.116327,-0.348493,0.919026,0.027802,-0.029003,-0.006865,right
-0.116998,-0.349286,0.919331,0.029003,-0.021023,-0.006007,right
-0.097539,-0.308233,0.93513,0.030805,-0.03235,-0.012785,right
-0.104798,-0.307989,0.93635,0.042475,-0.02068,0.000944,right
-0.101565,-0.306647,0.936289,0.020508,-0.021538,-0.006607,right
-0.100223,-0.306891,0.937265,0.031577,-0.023683,-0.00429,right
-0.100711,-0.306464,0.937082,0.02703,-0.024541,-0.006779,right
-0.10065,-0.307318,0.937509,0.018535,-0.019736,-0.005749,right
-0.100833,-0.305549,0.938058,0.028317,-0.023597,-0.006264,right
-0.100894,-0.307257,0.937631,0.024455,-0.020422,-0.002059,right
-0.100894,-0.307013,0.93696,0.027802,-0.020766,-0.00103,right
-0.098759,-0.304817,0.936228,0.026515,-0.025657,-0.008838,right
-0.117974,-0.500261,0.848876,0.008924,-0.029175,-0.003089,right
-0.119438,-0.499285,0.849913,0.015016,-0.020165,0.006436,right
-0.116327,-0.495869,0.852048,0.020508,-0.038356,-0.007465,right
-0.118767,-0.488366,0.854,0.048996,-0.017419,-0.011842,right
-0.122671,-0.499163,0.852414,0.018964,-0.016475,0.00532,right
-0.119865,-0.493917,0.854061,0.014587,-0.025056,-0.006607,right
-0.119865,-0.492758,0.854061,0.016475,-0.019736,-0.021881,right
-0.118645,-0.492087,0.854671,0.016218,-0.007208,0.00163,right
-0.115351,-0.490623,0.854,0.02437,-0.024713,-0.006092,right
-0.114802,-0.492636,0.856013,0.036297,-0.028832,-0.009181,right
-0.114802,-0.635986,0.756461,0.020251,-0.020937,-0.004119,right
-0.115717,-0.63623,0.756949,0.02394,-0.023168,-0.003947,right
-0.116266,-0.635315,0.75762,0.022139,-0.022825,-0.004376,right
-0.116144,-0.634644,0.75823,0.026515,-0.019908,-0.002317,right
-0.115595,-0.635132,0.75884,0.027888,-0.000686,-0.00429,right
-0.115412,-0.634095,0.758108,0.028317,-0.020851,-0.005835,right
-0.114619,-0.634278,0.757864,0.029346,-0.024799,-0.007723,right
-0.115778,-0.63501,0.758962,0.02866,-0.021709,-0.00163,right
-0.114375,-0.634888,0.757742,0.024026,-0.025828,-0.006264,right
-0.114802,-0.634766,0.757925,0.027802,-0.021624,-0.004376,right
-0.112118,-0.635254,0.757742,0.026515,-0.022825,-0.006178,right
-0.113521,-0.636596,0.758047,0.024884,-0.029089,-0.007465,right
-0.112484,-0.635193,0.757742,0.022739,-0.024884,-0.008323,right
-0.11346,-0.635193,0.758413,0.019049,-0.023082,-0.005406,right
-0.112118,-0.635681,0.759633,0.028574,-0.043934,-0.004462,right
-0.113155,-0.635437,0.758535,0.029432,-0.02437,-0.021538,right
-0.113216,-0.636596,0.759206,0.034581,-0.018106,-0.00163,right
-0.114253,-0.636718,0.758779,0.025313,-0.019736,-0.00163,right
-0.115229,-0.637389,0.758047,0.01536,-0.024627,-0.002832,right
-0.114253,-0.637999,0.758596,0.000257,-0.000944,-0.001888,right
-0.139995,-0.732793,0.669658,0.043762,-0.000257,-0.010469,right
-0.138653,-0.73139,0.670878,0.02703,-0.023683,-0.004548,right
-0.140605,-0.731085,0.671732,0.020937,-0.019564,-0.005921,right
-0.140056,-0.730963,0.671915,0.024627,-0.020766,-0.003604,right
-0.140544,-0.730963,0.672403,0.023511,-0.020937,-0.004119,right
-0.139507,-0.729011,0.672281,0.028059,-0.020766,-0.002403,right
-0.139629,-0.73017,0.672281,0.022568,-0.025914,-0.007723,right
-0.140422,-0.730048,0.671976,0.030891,-0.024284,-0.003261,right
-0.139263,-0.730719,0.671183,0.030204,-0.024799,-0.009267,right
-0.139568,-0.730902,0.670085,0.029432,-0.029947,-0.01167,right
-0.132553,-0.738466,0.662948,0.025828,-0.03132,-0.007465,right
-0.133041,-0.738283,0.662826,0.020766,-0.027716,-0.006779,right
-0.133468,-0.738283,0.662338,0.031921,-0.026601,-0.006264,right
-0.134932,-0.739686,0.662582,0.032779,-0.001373,-0.003518,right
-0.135786,-0.739381,0.661606,0.026601,-0.023254,-0.001802,right
-0.134505,-0.738466,0.659776,0.001459,-0.029518,-0.001201,right
-0.133773,-0.739625,0.662643,0.000601,-0.017762,0.021795,right
-0.133651,-0.738222,0.660447,0.013729,-0.039729,-0.020766,right
-0.140117,-0.741333,0.662338,0.00738,-0.019221,-0.004119,right
-0.139324,-0.736697,0.664229,0.017934,-0.024541,-0.007809,right
-0.123647,-0.605974,0.782325,0.028746,-0.02394,-0.00103,right
-0.124684,-0.605242,0.780739,0.031835,-0.022997,-0.004891,right
-0.125904,-0.606889,0.779214,0.025828,-0.022482,-0.001459,right
-0.124074,-0.607438,0.77897,0.039729,-0.022482,-0.006865,right
-0.125416,-0.610305,0.777628,0.019393,-0.026686,-0.01064,right
-0.125416,-0.609207,0.778482,0.030977,-0.025828,-0.009267,right
-0.12627,-0.609329,0.77775,0.033208,-0.019908,-0.008924,right
-0.127124,-0.612074,0.77653,0.019993,-0.04299,-0.005234,right
-0.127856,-0.611647,0.776652,0.030719,-0.018106,0.001716,right
-0.126941,-0.611098,0.775798,0.02866,-0.02334,-0.003347,right
-0.129076,-0.477508,0.859063,0.02969,-0.030548,-0.010554,right
-0.129686,-0.479155,0.859124,0.019135,-0.042732,-0.005749,right
-0.130052,-0.480192,0.8601,0.034838,-0.007894,0.00695,right
-0.126758,-0.479582,0.857172,0.025228,-0.026429,-0.00429,right
-0.127551,-0.480741,0.858331,0.00532,-0.025399,-0.004548,right
-0.127002,-0.480802,0.858087,0.028832,-0.029261,-0.001888,right
-0.126941,-0.481717,0.858148,0.025571,-0.025228,-0.005835,right
-0.127368,-0.482449,0.858331,0.027287,-0.000601,-0.00532,right
-0.127673,-0.482266,0.857904,0.024198,-0.000772,-0.004548,right
-0.127673,-0.482388,0.858636,0.031492,-0.000172,-0.002231,right
-0.130296,-0.337818,0.919697,0.063326,-0.038699,0.003861,right
-0.12932,-0.341722,0.918599,0.028574,-0.027973,-0.005749,right
-0.130113,-0.341966,0.918599,0.042303,-0.029089,-0.005749,right
-0.12932,-0.342393,0.917745,0.025313,-0.027802,-0.006779,right
-0.13115,-0.343247,0.91805,0.030977,-0.022053,-0.005663,right
-0.130845,-0.343552,0.918721,0.030634,-0.026686,-0.008667,right
-0.130479,-0.34404,0.917379,0.033122,-0.028059,-0.003175,right
-0.132858,-0.345077,0.918233,0.036554,-0.02068,-0.00266,right
-0.131577,-0.345748,0.917135,0.027973,-0.023082,-0.003175,right
-0.132431,-0.347456,0.916769,0.053373,-0.026772,-0.008066,right
-0.13176,-0.359412,0.915549,0.023426,-0.000601,-0.006436,right
-0.12993,-0.358924,0.915854,0.022224,-0.026601,-0.006178,right
-0.130479,-0.360205,0.915244,0.025142,-0.026,-0.004462,right
-0.132065,-0.361669,0.916403,0.02969,-0.020851,-0.001545,right
-0.131028,-0.36173,0.914207,0.033379,-0.023082,-0.00266,right
-0.128466,-0.363011,0.913719,0.019993,-0.023597,-0.003175,right
-0.132614,-0.363682,0.913048,0.024198,-0.024455,-0.011584,right
-0.130601,-0.364658,0.913231,0.025742,-0.026858,-0.009096,right
-0.131089,-0.363499,0.91134,0.023082,-0.019822,-0.004548,right
-0.132614,-0.364902,0.913048,0.029346,-0.021967,-0.004805,right
-0.13237,-0.675758,0.725534,0.000257,-0.012614,-0.005148,right
-0.133956,-0.675575,0.72773,0.053888,0.021023,0.039558,right
-0.109434,-0.675758,0.72407,0.018964,-0.030204,-0.02068,right
-0.126148,-0.674843,0.722728,0.027973,-0.033465,-0.012271,right
-0.126819,-0.678137,0.722057,0.014502,-0.029775,-0.006865,right
-0.123464,-0.677466,0.724131,-0.004376,-0.036554,-0.062468,right
-0.134993,-0.672464,0.726327,0.032521,-0.008152,0.013815,right
-0.130235,-0.673745,0.726693,0.032264,-0.019221,-0.001116,right
-0.131882,-0.672647,0.7259,0.035525,-0.018449,0.008581,right
-0.128649,-0.673806,0.726083,0.036554,-0.019736,-0.003003,right
-0.119255,-0.577975,0.800442,0.030548,-0.000515,-0.003003,right
-0.118767,-0.57828,0.800747,0.031406,-0.027201,-0.006264,right
-0.118767,-0.579073,0.801174,0.026601,-0.023597,-0.006436,right
-0.120536,-0.579439,0.800991,0.025657,-0.024541,-0.00635,right
-0.120353,-0.579439,0.800869,0.022997,-0.023855,-0.006436,right
-0.120475,-0.579012,0.801479,0.025742,-0.024284,-0.00429,right
-0.119987,-0.579866,0.801418,0.039643,-0.000772,-0.003089,right
-0.120841,-0.580964,0.800015,0.03132,-0.031406,-0.008152,right
-0.120231,-0.582123,0.799466,0.041789,-0.029089,-0.004719,right
-0.121939,-0.582306,0.796904,0.02763,-0.029261,-0.006521,right
-0.120658,-0.523624,0.835517,0.02763,-0.026686,-0.010383,right
-0.121573,-0.524234,0.836188,0.030634,-0.016475,-0.005063,right
-0.121451,-0.523136,0.83448,0.001201,-0.022568,-0.008752,right
-0.122183,-0.524478,0.833992,0.025571,-0.026086,-0.004634,right
-0.121817,-0.524478,0.83387,0.018535,-0.027115,-0.001459,right
-0.122122,-0.522282,0.83631,0.02763,-0.043505,-0.00429,right
-0.122305,-0.524112,0.835029,0.026515,-0.000515,-0.004977,right
-0.124318,-0.524417,0.836127,0.029261,-0.01699,-0.003347,right
-0.123769,-0.523197,0.834785,0.029518,-0.026171,-0.00635,right
-0.123098,-0.523685,0.834785,0.022139,-0.042818,-0.006092,right
-0.121573,-0.461892,0.869921,0.052086,-0.007894,0.006693,right
-0.121512,-0.465735,0.869189,0.026601,-0.025142,-0.009181,right
-0.121695,-0.465491,0.868152,0.027287,-0.018363,-0.007723,right
-0.122305,-0.467809,0.868518,0.033379,-0.022825,-0.006693,right
-0.122061,-0.468541,0.867298,0.028317,-0.022139,-0.00695,right
-0.123525,-0.470188,0.867969,0.024455,-0.017076,-0.008924,right
-0.122,-0.470371,0.866261,0.032521,-0.023683,-0.007894,right
-0.121817,-0.469883,0.8662,0.021109,-0.022825,-0.004548,right
-0.120414,-0.470188,0.865895,0.02866,-0.026601,-0.003432,right
-0.121085,-0.471164,0.86559,0.030462,-0.02703,-0.00532,right
-0.116083,-0.430599,0.886391,0.030033,-0.026601,-0.006264,right
-0.116083,-0.430416,0.887001,0.019908,-0.021709,-0.00695,right
-0.115412,-0.428403,0.88572,0.035267,-0.031148,-0.006007,right
-0.118218,-0.428647,0.885354,0.026944,-0.017162,-0.002917,right
-0.117486,-0.429745,0.885537,0.029775,-0.019478,-0.006521,right
-0.113521,-0.431758,0.885537,0.025142,-0.037241,-0.001888,right
-0.122488,-0.429623,0.884683,0.027201,-0.016304,-0.001116,right
-0.118584,-0.432368,0.885842,0.031663,-0.024627,-0.00901,right
-0.118279,-0.430904,0.883646,0.03029,-0.017333,-0.001201,right
-0.117608,-0.432978,0.884256,0.027201,-0.024112,-0.006007,right
