acc_x,acc_y,acc_z,gy_x,gy_y,gy_z,pitch,roll,yaw,direction
-0.1227,0.0529,0.9331,0.1002,-1.6622,0.0793,146.1488,6.412,3.2699,up
0.1995,0.007,0.9782,0.0061,-0.2618,-0.1947,143.7422,357.9647,1.042,up
0.0398,0.0058,0.9614,0.0245,2.7956,0.2213,146.0914,19.6641,0.5604,up
-0.4093,0.0189,0.8468,-0.2742,1.4691,-0.0148,147.2838,40.4199,358.4291,up
-0.6415,0.0286,0.6792,-0.1362,1.4713,-0.1898,141.4768,58.2958,351.777,up
-0.8592,0.0177,0.482,0.0862,0.1279,-0.0395,136.9683,64.0352,350.1326,up
-0.7765,0.0342,0.6438,-0.0131,-2.6399,0.0042,141.8631,37.6578,355.5325,up
-0.2404,-0.0355,0.9017,0.0377,-1.77,-0.3031,142.6589,14.225,355.525,up
0.0766,0.0199,1.0145,-0.0353,-0.8317,0.1169,144.6938,3.1805,357.7487,up
0.1588,-0.0388,0.9906,0.1445,0.0995,0.0212,145.1097,0.3239,358.2454,up
-0.0331,-0.0256,0.9631,-0.0883,2.4556,-0.0094,144.6027,25.1456,355.387,up
-0.4813,0.0427,0.8564,0.332,1.3096,0.2338,144.5882,43.4998,357.3645,up
-0.7469,0.0379,0.5871,-0.0474,1.2794,-0.1132,142.0238,60.8435,356.513,up
-0.9476,0.0272,0.4874,0.0424,-0.5044,0.1641,142.8135,59.3566,359.0812,up
-0.5798,0.1068,0.7472,-0.1536,-2.1564,0.3061,146.9554,34.1477,0.455,up
-0.2113,0.0396,0.9278,0.1322,-1.5389,0.1855,148.0572,8.972,1.5677,up
0.0812,0.0354,0.9884,0.0146,-0.7792,0.0117,149.2391,356.4646,1.8335,up
0.1377,0.0202,0.9992,0.0403,0.4553,0.0856,150.0268,357.7684,2.6723,up
-0.0681,0.0151,0.9872,0.1347,1.0885,-0.0937,150.557,10.4316,3.2836,up
-0.4001,0.0733,0.9051,0.43,1.8081,0.0135,152.0589,30.6503,8.9326,up
-0.741,0.0818,0.676,-0.0602,1.1346,-0.1938,150.7567,48.3741,7.9272,up
-0.8343,0.0488,0.502,-0.0046,0.7889,-0.0931,149.1692,59.3188,8.3695,up
-0.8716,0.0442,0.531,0.015,-1.5248,-0.0365,145.1464,47.0885,5.7441,up
-0.469,0.0515,0.7998,-0.2187,-1.9814,0.2057,144.4411,17.8138,5.2152,up
-0.0257,0.0828,0.9392,-0.1937,-1.3147,-0.1056,142.9854,356.0469,5.6833,up
0.1295,0.0073,0.9933,-0.0015,-0.0361,0.0244,143.5378,351.2002,4.2397,up
-0.0346,0.0422,0.9329,0.0034,2.1981,-0.1711,143.5803,12.922,5.8706,up
-0.4428,0.0294,0.8946,-0.1496,1.2491,-0.1167,143.4667,31.1447,3.3652,up
-0.6494,0.0253,0.697,0.2477,1.4318,-0.1423,145.21,48.0566,8.1972,up
-0.8639,0.0131,0.5174,0.044,0.7672,-0.1066,146.6132,58.5415,10.8493,up
-0.9044,0.0112,0.3636,-0.0091,0.364,0.0922,148.7058,63.0317,13.5426,up
-0.915,0.0172,0.3665,0.0412,-0.0887,-0.0019,149.059,63.3965,13.8519,up
-0.8627,0.0068,0.4876,-0.1136,-1.4714,-0.0697,140.35,47.0514,5.8949,up
-0.6674,0.0034,0.7287,-0.0886,-0.8965,0.0017,139.5173,35.2708,4.0757,up
-0.3964,0.0012,0.8844,0.0858,-1.1968,-0.0587,138.2248,18.8241,4.6318,up
-0.1661,0.0143,0.9784,0.0541,-1.0395,-0.0111,137.2025,8.081,2.4892,up
0.0587,0.0357,0.9777,-0.0702,-0.7676,-0.0807,137.0555,358.0597,3.1335,up
0.167,0.0376,0.9945,-0.0029,0.0798,-0.0565,136.444,356.0612,1.7066,up
0.0689,0.009,0.9687,-0.0283,2.7089,-0.1613,137.1198,17.7092,0.171,up
-0.4784,0.0563,0.8381,-0.3762,1.4173,-0.0828,134.5242,38.6272,358.419,up
-0.7558,0.0306,0.6828,0.2362,1.2551,-0.0211,132.2979,54.9962,358.8258,up
-0.8499,0.0197,0.4879,0.0682,0.84,0.146,138.0781,65.7554,4.7146,up
-0.9197,0.0286,0.3173,0.0924,0.2536,0.01,140.8182,71.8576,9.0802,up
-0.9274,0.058,0.3587,0.0453,-0.6386,-0.0816,138.3518,68.3543,7.1456,up
-0.8533,0.1025,0.5144,-0.156,-2.3069,0.2251,136.1043,46.7794,6.2003,up
-0.3826,0.0464,0.9002,0.2115,-1.3381,-0.0431,134.5746,26.26,4.0918,up
-0.1691,0.0422,0.9477,-0.309,-1.2791,0.1197,136.2004,7.51,0.3095,up
0.064,0.0762,0.9675,0.0233,-0.6111,0.0171,137.0124,357.6675,2.2377,up
0.1666,0.0677,0.9918,0.1907,0.1564,-0.055,137.006,357.6037,3.2322,up
0.1353,0.0762,0.9636,-0.1575,1.0666,-0.063,137.6505,1.7612,3.1464,up
-0.1293,0.0216,0.958,-0.313,2.0015,-0.0944,137.7169,21.5621,359.8967,up
-0.4065,-0.0164,0.868,-0.0912,2.154,0.0045,136.9471,40.6354,358.378,up
-0.7269,0.0102,0.5888,-0.0665,0.9154,-0.0034,136.4008,53.8054,359.2843,up
-0.8301,-0.0403,0.4313,0.0288,1.1103,-0.0361,133.7278,67.8848,356.0141,up
-0.9752,-0.0065,0.1947,0.2286,0.1967,0.1218,134.2659,73.1108,1.4728,up
-0.9661,-0.0043,0.3095,0.1809,-0.8811,0.0104,132.8033,67.0136,2.0621,up
-0.7684,0.0558,0.5936,-0.0338,-1.8289,0.3225,137.4296,47.2334,4.717,up
-0.4717,0.0675,0.888,0.1479,-1.5635,0.3033,140.9484,26.5595,7.5818,up
-0.1432,0.1236,0.9175,-0.1046,-1.0363,0.1533,140.9261,10.4676,7.4684,up
0.0863,0.1025,0.968,-0.1963,-0.5467,0.1481,142.1224,359.4746,5.6942,up
0.111,0.0845,0.9923,0.0184,0.4921,-0.0306,142.1116,1.4919,6.157,up
-0.0583,0.0036,0.9948,-0.1346,1.486,-0.1625,141.8561,15.0565,3.3637,up
-0.4325,0.0437,0.9087,0.4741,2.069,-0.1039,142.7532,40.1159,7.9056,up
-0.7032,0.0352,0.6497,-0.013,1.5617,0.0039,147.4613,58.3973,10.5189,up
-0.9163,0.0238,0.3378,0.2261,1.0559,-0.1188,149.9291,73.8823,15.6466,up
-0.9715,0.0272,0.1876,0.0322,0.0276,0.0621,152.97,76.3499,19.972,up
-1.0182,0.017,0.2919,0.2854,-2.4171,0.1403,138.6468,56.1351,10.5118,up
-0.5433,0.0716,0.7689,-0.3023,-2.9107,0.0695,135.5827,20.7839,5.5175,up
-0.1333,0.0787,0.9982,-0.0488,-1.2605,0.1299,137.3386,1.1777,5.4227,up
0.0756,0.0653,0.9719,-0.2244,-0.134,0.089,138.5875,355.2215,2.8774,up
0.064,0.0765,0.8978,-0.5356,2.3101,-0.2314,138.052,12.7373,0.4316,up
-0.5625,0.05,0.7745,0.3135,2.4838,0.0139,140.5604,45.0042,6.3087,up
-0.8494,0.007,0.4343,0.1675,1.3791,0.0722,147.8511,62.9938,15.3436,up
-0.9222,0.0029,0.2074,0.0569,0.1721,0.0266,152.993,68.8921,22.908,up
-1.0054,0.0168,0.3668,0.3266,-1.6992,0.0424,144.0863,59.4828,16.1982,up
-0.5707,0.0753,0.6816,-0.3628,-2.1296,0.2547,138.3484,28.4819,10.0917,up
-0.2012,0.0044,0.9758,-0.0375,-1.7038,0.1616,137.4742,6.0938,8.0935,up
0.0267,0.0005,1.0854,0.5388,0.5933,0.0608,139.1007,9.7088,9.0713,up
-0.1121,0.0733,0.9492,-0.2391,1.7271,-0.117,141.5689,28.2211,5.9552,up
-0.5356,0.0641,0.8395,-0.4813,1.6626,-0.2315,140.9962,47.8933,2.7202,up
-0.7933,0.0566,0.5193,0.0889,1.7903,0.1249,147.0227,68.7069,10.6767,up
-0.9871,0.0456,0.2335,0.1225,0.7537,-0.037,159.1884,80.946,25.3413,up
-0.9849,0.0294,0.1547,0.0138,-0.297,0.0052,155.874,80.2245,24.3457,up
-0.7052,0.0957,0.5671,-0.1356,-2.3471,0.2065,141.9315,49.0692,8.6796,up
-0.4038,0.0422,0.8461,-0.5693,-2.0438,0.1826,141.9435,21.2339,3.554,up
0.0657,0.0388,0.9663,-0.2327,-0.9216,0.0287,142.954,5.8806,0.5971,up
-0.0583,-0.0304,0.8807,-0.6191,3.9558,0.0528,140.5475,42.3139,351.374,up
-0.6534,0.0117,0.6587,-0.0537,2.0069,0.2113,133.1815,64.119,345.3874,up
-0.9261,-0.001,0.3285,0.1977,1.3123,0.0162,100.5139,82.5837,316.5483,up
-0.9817,0.0146,0.1435,-0.0119,-0.4173,0.1078,115.4361,82.2986,334.5751,up
-0.8316,0.0017,0.3599,-0.2382,-1.655,0.1643,138.5615,62.3869,357.7127,up
-0.5413,0.0738,0.7413,-0.109,-2.2026,0.0938,141.3179,32.7259,0.19,up
-0.077,0.0998,0.9597,-0.0351,-1.7692,0.2541,145.0148,8.2127,1.3823,up
0.1384,0.0612,0.9909,-0.069,-0.0977,-0.0391,144.3994,4.1942,0.7392,up
-0.0173,0.0442,0.8941,0.1995,2.6451,-0.3332,142.4725,30.1223,2.4101,up
-0.4855,0.067,0.8512,0.0122,1.8742,-0.379,141.5602,51.3449,2.0759,up
-0.9076,0.0721,0.5069,0.2999,1.5953,0.0831,139.1334,74.8685,2.7197,up
-0.9767,0.0541,0.2405,0.0202,1.1042,0.0633,346.1184,87.5629,208.1802,up
-0.9923,0.0289,0.2171,-0.0366,-1.2871,0.0398,128.968,82.4154,350.4879,up
-0.6941,0.0646,0.6592,-0.343,-3.0623,0.3653,142.8178,43.9697,2.5612,up
-0.1491,0.0476,0.9153,-0.2385,-2.4694,0.0184,142.2709,11.4244,3.8281,up
0.0987,0.0012,0.9368,0.1112,0.3219,0.0217,142.8733,7.7525,6.0949,up
-0.1985,-0.0398,0.8975,0.2276,2.8931,-0.1102,146.1167,39.0217,6.0061,up
-0.6906,-0.0391,0.7988,-0.1652,1.9047,-0.0323,148.7983,64.0208,3.9738,up
-0.9365,-0.0215,0.3075,0.2807,1.5321,-0.1988,142.3732,85.7981,2.4167,up
-0.9947,0.0087,0.1338,-0.1271,-0.6927,0.0297,139.7402,81.2927,1.3408,up
-0.7104,0.1095,0.5766,-0.8769,-3.6001,0.4664,145.2639,34.1896,2.8528,up
-0.1382,0.0342,1.0243,-0.0516,-2.1401,0.1867,147.2369,6.8446,358.4293,up
0.1203,-0.0029,1.0321,0.4459,1.6121,0.2731,148.1743,17.9599,4.6517,up
-0.3503,-0.0041,0.8571,-0.4701,2.4817,0.0483,150.4608,45.4361,5.8358,up
-0.7447,0.0456,0.5861,0.1011,2.2492,0.0459,164.0886,71.3448,21.9149,up
-0.9876,0.0694,0.2391,0.2492,1.2905,0.0978,257.3497,85.301,117.6439,up
-1.0456,0.0403,0.1119,0.2993,-1.106,0.0755,186.4177,83.4532,52.008,up
-0.7487,0.0808,0.4925,-0.5162,-2.736,0.3919,147.7779,48.5905,13.3235,up
-0.4046,0.0595,0.938,0.1488,-1.2859,0.0223,144.6716,32.8433,9.5795,up
-0.0138,-0.006,0.9511,-0.0541,-1.3008,0.0129,144.5878,11.5332,5.3021,up
0.0829,0.0291,0.9672,0.0932,2.4542,-0.2119,146.0796,26.5708,6.4279,up
-0.6541,0.0641,0.7289,0.0247,3.0757,0.1018,156.7699,65.4568,16.4701,up
-0.9664,-0.0046,0.3519,0.2596,1.3827,0.015,193.7144,81.817,55.6394,up
-0.9548,0.0352,0.1413,-0.1037,-0.0732,0.0047,194.9025,82.5046,57.0181,up
-0.9612,0.0238,0.2371,0.1251,-1.429,-0.0667,151.5341,70.4686,18.1532,up
-0.5902,0.0583,0.6597,-0.1583,-2.4955,0.1608,141.7161,36.6893,7.4898,up
-0.0896,0.0311,0.9412,-0.6547,-3.0551,0.2921,141.6411,356.1223,0.4365,up
0.1186,-0.0118,1.0167,0.2384,0.7029,0.035,142.5883,358.8842,2.8507,up
-0.0943,0.0685,1.0074,0.5264,1.5447,-0.027,143.0479,15.4692,4.8997,up
-0.4784,-0.0478,0.8371,0.0249,1.9415,-0.4601,138.6309,43.6424,0.3412,up
-0.816,0.0022,0.5196,-0.0487,1.9592,0.0796,140.8287,68.0915,4.5582,up
-0.9478,-0.035,0.2286,0.1269,1.2784,-0.0683,152.1922,85.0859,17.9332,up
-1.0002,-0.04,-0.0101,0.0267,-0.3853,-0.0124,161.1295,85.4323,30.2406,up
-0.8758,0.0061,0.3465,0.2234,-2.9244,0.3945,136.3729,52.9984,7.4086,up
-0.4998,0.0748,0.868,0.0741,-2.3477,0.2439,136.9773,20.9026,7.4698,up
-0.1738,0.0439,0.9853,-0.3269,-1.4024,-0.0731,136.1346,7.4753,4.0431,up
0.0162,0.0189,1.0116,0.0225,0.4952,0.1559,137.9121,8.0802,3.9627,up
-0.254,0.0422,0.986,0.3126,1.8526,-0.3157,137.0775,32.4689,5.2998,up
-0.7536,0.0867,0.6234,-0.3025,2.8819,0.0469,142.8354,68.7581,7.6909,up
-0.9925,0.0206,0.1547,-0.0316,1.4473,-0.0053,183.1335,88.3536,49.7962,up
-1.0209,0.0102,0.0697,-0.009,-1.0765,-0.049,138.581,82.1134,7.1287,up
-0.9148,0.0114,0.4194,0.1456,-3.7023,0.3462,134.9049,50.5487,6.6145,up
-0.3322,0.0034,0.8666,-0.3098,-1.9183,-0.1174,133.19,23.1807,359.8734,up
-0.0494,-0.0195,0.9811,-0.0041,-0.9049,-0.2775,132.1423,9.2123,359.244,up
0.1593,-0.0396,1.0099,-0.1611,-0.3279,0.1214,135.6785,0.817,356.7811,up
0.0941,-0.0043,0.9736,0.1868,1.5517,0.0753,136.883,13.3515,359.2762,up
-0.5134,0.0345,0.8861,-0.2344,2.3859,0.1046,139.8373,46.2675,3.2084,up
-0.8466,-0.0084,0.5208,0.403,1.666,-0.1614,140.1505,69.9119,8.0147,up
-0.9829,0.0211,0.2671,-0.0252,0.3175,0.0704,136.6525,77.2641,6.064,up
-0.952,0.0092,0.434,-0.1278,-1.8349,0.1828,136.0227,57.3467,6.7182,up
-0.4021,0.041,0.7774,-0.2396,-1.8853,0.0661,134.7543,28.11,5.4433,up
-0.0699,-0.0084,0.9843,-0.553,-1.2766,0.2408,139.1111,8.8195,356.8192,up
0.0958,-0.0651,1.016,0.0613,0.5078,-0.0545,139.6108,9.5542,355.9605,up
-0.197,-0.1042,0.9738,0.1071,1.5667,-0.0814,137.2883,27.3438,355.3696,up
-0.5082,-0.0463,0.8525,0.4391,1.454,0.0542,136.6592,43.0122,0.043,up
-0.7437,-0.0145,0.5746,0.1263,1.629,0.0017,136.735,63.2586,2.3315,up
-0.9861,0.0046,0.3592,0.1175,-0.101,-0.0124,136.958,68.4025,5.154,up
-0.8466,0.0228,0.5503,0.1074,-2.2665,0.0258,132.9215,44.0786,5.382,up
-0.3902,-0.0014,0.833,-0.283,-1.3486,0.002,132.9591,23.4253,2.3334,up
-0.1822,0.0056,0.9304,0.2512,-1.5612,-0.0994,131.2704,3.0725,5.7057,up
0.1244,-0.0357,0.9906,-0.2601,-0.6856,0.0081,132.0303,351.8521,2.0439,up
0.1508,-0.0241,0.985,0.097,0.5988,0.0035,134.1972,357.5365,2.6762,up
-0.179,-0.0188,0.8566,-0.0337,1.9479,-0.0481,135.5027,19.0039,7.281,up
-0.5504,-0.0323,0.8225,-0.0111,1.4922,0.0713,138.7273,37.9653,9.3586,up
-0.7247,-0.0581,0.638,0.2271,1.596,0.0166,144.6113,54.175,14.9325,up
-0.9256,0.0119,0.3185,0.2011,1.1977,0.0173,154.7006,68.7021,28.1578,up
-0.9827,-0.0002,0.224,-0.009,-0.2408,0.0322,154.0272,68.8003,29.0726,up
-0.8545,0.0141,0.5551,0.1306,-3.4876,0.3786,136.2886,33.143,15.8523,up
-0.175,-0.0082,0.9538,-0.1504,-2.6864,0.0927,131.6459,358.2137,10.8365,up
0.1239,0.0012,0.978,-0.0447,-0.3343,-0.0115,132.4074,351.0668,10.1976,up
0.1043,0.026,0.9936,0.254,0.9439,0.0127,135.1197,358.7556,10.5435,up
-0.2051,0.0789,0.946,0.4296,1.8746,-0.0612,140.5261,20.5878,16.7882,up
-0.72,0.1243,0.6692,-0.3043,2.7848,-0.0325,149.8707,55.7213,21.6132,up
-0.914,0.0415,0.3392,0.2595,0.8352,-0.1907,158.3748,69.2299,30.6629,up
-0.9604,0.0643,0.2737,-0.082,-0.5496,-0.0777,151.6725,66.079,24.585,up
-0.8037,0.0743,0.5198,-0.3477,-2.5707,0.0374,137.3175,37.9896,9.9913,up
-0.3512,0.0891,0.9492,0.1544,-1.9684,0.2909,135.7227,12.2665,12.9926,up
-0.0215,0.0459,0.9801,-0.1474,-0.8035,0.0948,135.3573,359.5535,10.2855,up
0.0032,0.0418,0.9943,0.32,1.2634,0.0457,138.3586,8.5249,13.3784,up
-0.3068,0.0493,0.9546,0.2476,1.1864,0.0176,143.4376,24.3598,16.2869,up
-0.5598,0.0825,0.8356,0.2485,1.6241,-0.1507,147.2931,45.1948,17.5748,up
-0.8536,0.1051,0.4618,0.3682,1.5661,0.0759,159.5211,63.5104,32.5187,up
-0.9538,0.0842,0.3353,0.1651,0.4708,-0.1379,168.921,71.0169,41.9121,up
-0.9735,0.0743,0.2856,0.0203,-1.1663,-0.0188,153.793,64.4584,27.7917,up
-0.686,0.0656,0.6397,0.0692,-2.7045,0.0939,137.5275,36.5579,14.2407,up
-0.1896,0.0976,0.9404,0.0439,-1.9073,0.2124,133.8487,9.3003,12.9846,up
0.071,0.0792,0.9914,0.0023,-0.016,-0.0044,134.1117,4.4612,11.9087,up
0.0461,0.0915,0.9514,0.0133,0.4284,0.0802,135.1776,7.3982,12.575,up
-0.3152,0.0872,0.9219,0.2359,2.3923,-0.071,142.5919,34.7398,16.3188,up
-0.7198,0.0658,0.6031,-0.0194,2.3578,-0.0649,149.4479,63.1083,16.9521,up
-0.8526,0.0124,0.3375,0.1813,0.7118,0.0273,158.816,72.9537,28.3872,up
-0.9441,0.0551,0.2452,0.0549,-0.1061,-0.0241,157.8342,74.7001,29.7263,up
-0.8815,0.0367,0.5198,-0.0214,-2.9005,0.3216,140.1807,45.4009,13.1151,up
-0.468,0.058,0.8602,0.2327,-1.7429,0.1652,139.1629,27.1646,9.5212,up
-0.1091,0.1185,0.9414,-0.3626,-1.6121,0.2486,139.9073,4.9431,4.7227,up
0.111,0.0269,0.9597,0.0158,-0.3101,-0.1206,138.6767,358.2806,3.8236,up
0.0887,0.0403,0.9351,-0.0556,2.2277,-0.2605,138.8703,17.7002,5.7307,up
-0.3875,0.0481,0.8154,-0.2532,1.8603,-0.1109,141.7216,39.274,6.2476,up
-0.7864,0.0471,0.5744,0.1979,1.6358,0.0464,145.532,61.8612,11.8424,up
-0.8985,0.0405,0.3673,0.0229,0.5048,0.0672,149.37,69.6355,16.4771,up
-0.9498,0.0639,0.3363,-0.0614,-0.9023,0.0501,145.428,62.5507,12.4406,up
-0.5939,0.093,0.7082,-0.6201,-2.439,0.3977,144.8049,31.5608,7.0871,up
-0.1999,0.0648,0.8802,0.0522,-1.2878,0.1799,144.7689,10.9505,8.6911,up
0.0184,0.0721,1.0255,-0.1958,-0.6959,0.1515,145.0367,0.9788,5.6927,up
0.072,0.0439,0.9477,0.0968,0.8011,-0.117,144.7654,5.9472,4.87,up
-0.3421,0.0806,0.917,0.1035,1.9342,0.0061,145.5438,29.372,6.0369,up
-0.608,0.0265,0.7245,0.1111,1.3692,0.0061,146.7318,46.4315,6.0315,up
-0.823,0.0354,0.5335,0.0714,1.2308,-0.1668,143.7949,62.1949,5.1155,up
-0.9269,0.0466,0.3582,-0.1474,0.001,0.0251,143.5842,64.6197,4.3337,up
-0.7928,0.034,0.5668,-0.1267,-2.4507,0.1705,143.2789,39.019,2.7838,up
-0.3762,0.0029,0.8863,0.3724,-1.48,-0.0229,143.0718,17.9911,3.7408,up
-0.0227,0.1241,0.9994,-0.2345,-1.6215,0.2041,142.2366,355.628,3.421,up
0.1709,0.0269,0.9443,-0.0291,-0.0137,-0.0474,143.4299,351.9368,2.5288,up
-0.0464,0.0983,0.9994,0.1835,2.3131,-0.1564,141.983,19.3199,3.6887,up
-0.5201,0.0585,0.8819,-0.0657,1.8599,-0.1891,139.4714,44.9025,359.9525,up
-0.7832,0.0612,0.5191,0.09,1.6897,0.1511,138.2729,64.8252,0.882,up
-0.9419,0.0425,0.3107,0.0027,-0.0715,-0.0564,135.5181,68.278,359.606,up
-0.8716,0.0864,0.501,0.0818,-2.2816,0.1818,136.7477,44.0541,2.2179,up
-0.3392,0.0804,0.8344,-0.359,-1.5372,0.1684,139.4917,16.027,359.988,up
-0.0311,0.1304,0.9302,-0.2197,-1.6371,0.2735,141.3915,353.1452,359.6505,up
0.1486,0.0862,0.9682,-0.0879,0.3003,-0.008,141.7282,352.771,0.28,up
-0.1491,0.0556,0.9882,0.0795,3.3671,0.1963,141.8972,23.4407,358.012,up
-0.6509,0.0068,0.8103,0.0532,1.2257,-0.2924,137.3656,43.8004,354.4065,up
-0.7827,0.0998,0.5293,0.085,1.514,-0.3083,124.6117,59.4976,348.7756,up
-0.9113,0.0413,0.3738,0.1849,0.5696,-0.0294,116.3685,71.5673,342.392,up
-0.9123,0.0481,0.4067,0.1965,-1.9853,-0.1919,122.4681,55.6184,349.0156,up
-0.4976,0.0755,0.7854,-0.3445,-2.828,0.39,135.8183,20.9699,353.5073,up
-0.0496,0.0306,0.9819,-0.2577,-1.2269,0.3554,144.7888,0.4545,348.5695,up
0.1244,0.0561,1.0352,-0.076,0.3601,0.0561,145.5429,1.4377,347.3237,up
-0.1074,0.0592,0.8907,-0.0082,1.9096,-0.0725,142.7083,20.631,351.8317,up
-0.5327,0.026,0.8405,-0.28,2.3283,0.2128,137.0923,47.8015,341.9073,up
-0.8634,0.1153,0.4694,0.2307,1.3604,-0.0105,121.948,68.4852,334.0942,up
-0.991,0.1029,0.2649,0.2304,0.3137,-0.0422,104.954,76.1996,322.0152,up
-0.8728,0.1199,0.3336,-0.7889,-2.6774,0.3332,138.5144,47.9459,352.5945,up
-0.329,0.009,0.909,0.6519,-2.1649,-0.0398,143.1654,20.0367,356.1767,up
-0.0829,0.0726,1.0172,-0.2046,-1.5711,0.1731,147.0386,1.4203,354.642,up
0.1501,0.0112,0.9762,-0.2431,-0.6866,-0.1503,147.6124,353.1814,351.8482,up
0.16,0.0219,0.9943,0.1919,0.5941,0.061,147.3828,354.6757,352.4702,up
0.0126,-0.0043,0.9811,-0.2544,2.6041,-0.1656,143.3429,16.0344,347.8403,up
-0.4811,-0.0287,0.8917,0.0276,2.69,0.0399,137.8047,39.4565,345.1463,up
-0.8333,0.0075,0.4021,0.2612,1.5547,0.0393,126.0811,60.4362,341.382,up
-0.9266,0.0134,0.2193,0.1775,0.1598,0.0311,122.684,67.0228,343.559,up
-0.9772,0.0456,0.3168,-0.0861,-1.6215,-0.0734,126.996,57.5261,348.4841,up
-0.7304,-0.0005,0.5927,0.3009,-3.0751,0.1969,134.4664,30.3312,357.2821,up
-0.3103,0.0495,0.8839,-0.3952,-2.207,0.1798,139.3411,7.5876,356.749,up
-0.0114,0.0908,0.9872,0.2145,-1.2013,0.1019,142.3541,353.1786,359.3147,up
0.1949,0.0364,0.9916,0.0654,0.3503,-0.0856,142.0791,353.7136,358.1083,up
0.0296,0.051,1.0277,0.1595,0.9942,0.0161,141.5761,8.3219,357.6797,up
-0.2814,0.1056,0.9017,0.1787,2.1527,0.01,141.6076,32.8587,0.6304,up
-0.6904,0.084,0.6977,-0.08,1.3143,-0.3098,135.71,49.4321,0.8017,up
-0.8242,0.0529,0.4881,0.1482,1.2807,0.0201,136.4195,65.2888,3.4444,up
-0.9096,0.0333,0.3156,0.0074,0.4673,-0.0648,135.3999,73.497,3.7157,up
-0.9508,0.0731,0.2425,0.062,0.1068,0.0005,135.5639,75.821,5.4707,up
-1.0142,0.0886,0.4292,0.5009,-3.1976,0.4904,136.3234,47.4604,11.8799,up
-0.409,0.1187,0.9336,-0.1607,-2.2688,0.0796,133.1464,19.0656,5.2111,up
-0.0768,0.1857,0.9626,-0.1085,-1.5984,0.21,134.4884,358.515,4.3317,up
0.1692,0.0658,0.9602,-0.1085,-0.4426,0.0826,136.4619,350.9869,3.0296,up
0.193,0.0376,0.9819,0.073,0.3927,0.006,137.5465,352.7028,3.2111,up
-0.0027,0.0869,0.9477,-0.0257,1.1093,0.0112,138.4111,4.9781,5.5968,up
-0.2027,0.0607,0.9543,-0.0846,0.6071,0.0267,139.718,13.3133,6.1487,up
-0.2673,0.0539,0.9239,-0.044,0.5583,-0.0438,140.1013,18.9345,5.0762,up
-0.3535,0.043,0.9158,0.0271,0.3475,-0.0029,140.619,22.8248,5.6199,up
-0.4354,0.0507,0.8444,0.0284,0.3628,-0.0227,140.8728,28.4707,6.0709,up
-0.4932,0.0442,0.8288,-0.2343,0.2095,0.0173,140.9197,30.9333,3.6761,up
-0.5541,0.0024,0.8103,0.0384,0.4343,0.0518,142.0653,36.5806,2.3141,up
-0.6312,0.026,0.6872,0.1328,0.2644,-0.0029,142.2381,41.0119,3.8828,up
-0.6995,0.0388,0.6597,0.054,0.8606,-0.0313,142.4701,51.2149,5.463,up
-0.8,0.0532,0.5196,0.087,0.7317,0.0108,143.822,60.5289,7.472,up
-0.913,0.0376,0.3568,0.1683,0.2889,-0.0502,142.0019,67.5833,11.2116,up
-0.9111,0.0622,0.3373,0.0219,0.1956,0.024,143.1625,69.5691,13.4744,up
-0.9609,0.1182,0.3889,0.09,-1.6117,0.036,136.9359,57.9892,9.8197,up
-0.5499,0.0675,0.7628,-0.2258,-1.8059,0.0888,135.4212,33.9717,5.3549,up
-0.3271,0.1127,0.9073,-0.2011,-1.5524,0.1664,136.1099,16.8107,4.9166,up
-0.057,0.0782,0.9524,-0.2173,-1.1813,0.1685,137.0847,1.8278,5.2789,up
0.1467,0.0612,0.9777,-0.1168,-0.3123,0.0466,137.5951,355.1225,4.7803,up
0.1186,0.0357,0.9962,0.4034,1.0261,-0.0719,138.5314,3.2024,7.048,up
-0.0881,0.0743,0.9704,-0.0731,1.8217,-0.0202,140.6999,18.9114,6.803,up
-0.367,0.0685,0.8854,-0.1531,1.2738,-0.0532,141.7478,31.4904,6.2529,up
-0.6045,0.0384,0.8369,0.0802,1.6116,-0.045,143.4357,46.3629,8.0511,up
-0.8499,0.0624,0.4772,-0.0304,1.0768,0.0488,146.6115,61.3489,12.1379,up
-0.9044,0.0284,0.3702,0.0885,0.454,-0.0578,147.3468,68.1369,14.507,up
-0.9313,0.0296,0.4097,0.0921,-0.8221,0.0476,142.425,60.877,10.8771,up
-0.7477,0.1231,0.6166,-0.2686,-1.3636,0.1218,139.8561,41.1637,8.8505,up
-0.5058,0.0442,0.7879,0.0316,-0.7348,-0.0273,138.2965,30.451,7.728,up
-0.3974,0.0498,0.9041,0.0292,-0.7919,0.0738,138.4948,20.6732,7.2195,up
-0.2093,0.0306,0.9667,0.0579,-0.7073,-0.1076,137.0757,10.4024,6.6308,up
-0.0133,0.0549,1.0187,-0.0093,-0.8081,0.109,138.4219,0.071,4.7409,up
0.0478,0.0245,0.9675,-0.0441,-0.1841,0.024,139.0781,357.1262,3.7087,up
0.0541,0.0177,0.9804,0.104,0.6104,0.0118,140.6373,1.6279,3.5803,up
-0.1451,0.0515,0.9675,0.0155,1.0212,0.0491,142.3143,14.1017,2.6514,up
-0.3954,0.0413,0.8698,-0.1537,1.5028,0.0415,143.2756,30.6839,2.051,up
-0.6558,0.0393,0.7094,0.0918,1.5383,-0.0697,141.0924,48.4673,1.4488,up
-0.8402,0.0228,0.5059,0.0527,1.056,-0.0184,139.6332,63.0931,359.8751,up
-0.9313,0.0012,0.3153,0.0663,0.1028,0.0411,138.4222,68.904,0.9615,up
-0.9459,0.0138,0.369,0.04,-1.2942,0.0301,136.908,56.7647,1.0758,up
-0.6985,0.0354,0.6714,-0.1268,-1.7444,0.2274,136.8634,32.4682,3.8704,up
-0.3579,0.0906,0.9112,0.0183,-1.2616,0.1703,138.3764,14.1952,4.9523,up
-0.1464,0.068,0.9607,0.0598,-0.9112,0.0514,138.9215,4.9535,5.9408,up
0.0162,0.0891,0.9848,-0.1347,-0.9296,0.1247,139.6893,353.1946,4.6446,up
0.1634,0.0444,0.9811,0.1591,0.0775,0.0041,139.4391,353.9042,6.3101,up
0.1263,0.0495,0.9992,0.0727,0.619,-0.0545,140.0121,2.0123,5.7611,up
-0.0765,0.0352,0.9843,-0.0684,1.1449,-0.0103,141.0553,15.7514,3.7985,up
-0.3717,0.0488,0.9553,0.1426,0.9052,0.0249,141.7458,29.1109,4.7423,up
-0.5924,-0.0005,0.774,-0.2322,1.3423,0.0099,143.7656,47.6431,2.6762,up
-0.8173,-0.0002,0.5335,0.2046,1.4162,0.0704,146.0952,65.93,6.5691,up
-0.9444,0.0199,0.3273,-0.0165,0.4687,0.012,145.3344,72.4324,7.4157,up
-0.9496,0.0306,0.3015,-0.0016,-0.5844,0.089,144.6533,69.3043,7.6692,up
-0.6595,0.0435,0.6945,0.0015,-2.2539,0.2252,145.2092,42.8521,3.3994,up
-0.4399,0.0714,0.889,-0.0962,-0.2371,0.1974,147.5181,31.6863,3.4609,up
-0.1933,0.0692,0.9755,-0.2453,-1.6986,-0.0313,146.7724,8.7616,0.4179,up
0.0696,0.1161,0.9538,-0.1207,-0.8853,0.0279,146.7283,355.8908,0.7005,up
0.1006,0.1119,0.9066,-0.4166,2.3297,-0.0261,146.0237,10.7111,1.0065,up
-0.5986,0.0573,0.9282,-0.1402,1.2329,-0.0423,144.2324,34.1972,0.7204,up
-0.6351,-0.0256,0.7345,-0.0498,1.1144,0.173,145.1423,43.0198,0.0593,up
-0.7837,0.0027,0.5132,-0.3125,1.1898,-0.0506,144.0122,57.7539,357.9304,up
-0.9093,-0.008,0.3712,0.0629,0.9357,0.1415,144.3384,69.1699,359.3658,up
-0.9938,0.0007,0.309,-0.0379,-1.2924,-0.061,142.7696,58.3159,359.3284,up
-0.7625,0.0415,0.5508,0.2984,-1.6308,0.1049,142.1444,39.1765,2.9237,up
-0.527,0.0566,0.8322,0.1475,-1.9998,0.261,142.3656,14.2622,5.4561,up
-0.1209,0.067,0.9777,-0.0116,-0.954,-0.0689,141.1305,359.0684,4.9276,up
0.0121,0.0675,0.9921,-0.1579,-0.6666,0.0945,141.5295,350.7737,3.2533,up
0.0618,0.0461,0.9743,0.2132,0.7732,-0.0154,142.5078,357.456,7.355,up
-0.274,0.0605,0.9548,0.3341,1.2561,-0.0115,145.3487,16.8154,9.583,up
-0.4078,0.0255,0.8512,0.0846,1.3102,-0.0555,147.6018,29.4935,10.6152,up
-0.7361,0.0779,0.6802,0.2132,1.5328,-0.0805,150.9304,48.7186,15.6066,up
-0.8326,0.0544,0.4092,-0.0162,0.7705,0.1431,157.6832,58.3033,21.1749,up
-0.9555,0.0903,0.2678,-0.0272,0.3035,0.0841,158.9135,60.8102,24.506,up
-0.9703,0.0821,0.356,0.2129,-2.107,0.1696,148.4369,40.556,22.9569,up
-0.6114,0.1204,0.717,0.0177,-1.0013,0.1409,142.6207,24.8713,19.2348,up
-0.3626,0.1785,0.9158,-0.2789,-1.3703,-0.0145,139.5406,10.4582,13.2059,up
-0.0452,0.0959,0.9894,-0.106,-1.3437,-0.0115,136.9106,353.8349,11.3928,up
0.128,0.1204,0.9819,-0.0929,0.4727,-0.0897,136.7899,353.9024,9.4114,up
0.0412,0.0833,0.9507,-0.1818,-0.1031,0.0659,138.1095,355.1522,7.2744,up
0.081,0.1059,0.9665,0.1434,0.319,0.0457,138.9289,355.8493,9.5429,up
-0.1456,0.118,0.9231,-0.2481,1.8373,0.031,142.0609,15.88,10.6287,up
-0.4581,0.0818,0.8088,-0.7066,2.0032,0.163,147.8578,34.1583,9.4519,up
-0.7761,0.0517,0.6,0.2018,1.5032,-0.0517,149.7456,54.9711,10.8297,up
-1.0686,0.0986,0.4711,-0.1171,0.5967,0.1022,156.3529,63.9133,17.0409,up
-1.0101,0.0799,0.356,0.0711,0.126,-0.06,155.2686,67.9773,17.7242,up
-0.8968,0.01,0.3263,0.0228,-1.2986,0.031,148.1464,57.4434,11.6319,up
-0.5458,0.0512,0.8239,0.0955,-3.6568,0.1819,142.8237,19.641,7.0028,up
0.1052,0.0741,0.987,0.3145,-2.3004,0.3331,141.958,349.5622,5.8108,up
0.2558,0.0876,0.9136,0.0555,0.0365,-0.22,142.2593,348.7758,8.0101,up
0.3191,0.0418,0.9667,0.0463,0.2158,-0.0487,142.3022,353.0312,8.2227,up
0.1869,0.0617,0.936,-0.0441,0.5279,-0.052,141.7627,356.623,8.6405,up
-0.0439,-0.027,0.9928,-0.2897,2.3636,-0.5233,137.9484,20.9355,4.5529,up
-0.5406,0.0121,0.7913,-0.1299,1.2103,0.0469,141.5703,41.733,6.9592,up
-0.8035,-0.0154,0.636,0.1932,1.1083,0.1581,151.2543,60.3814,15.8464,up
-0.8943,-0.0403,0.4101,-0.0496,0.6156,-0.0145,152.7375,67.6629,18.421,up
-0.9414,0.0114,0.3205,0.1996,0.5151,0.1251,161.1028,72.825,29.4536,up
-0.9503,-0.0029,0.272,-0.1427,-0.5463,0.0332,156.2194,70.4575,24.5693,up
-0.9093,0.0129,0.5308,0.3426,-2.2249,0.1569,144.6704,56.0281,13.129,up
-0.4297,0.052,0.8841,0.006,-2.0405,0.163,142.5443,29.8851,10.025,up
-0.1074,0.1122,0.9472,-0.1479,-1.4107,-0.0933,139.5331,13.1348,7.4867,up
0.0504,0.0935,0.9309,0.3157,-1.1348,0.1929,140.4571,1.4202,11.2451,up
0.2635,0.1122,0.9497,-0.2096,-1.0457,0.2363,141.5992,348.802,9.6732,up
0.3491,0.1148,0.9465,0.1535,0.1852,-0.0496,141.436,348.9261,11.7389,up
0.2589,0.0813,0.9382,0.3307,1.2756,-0.2793,141.6712,358.0286,13.4873,up
-0.0471,0.1056,0.8988,-0.0826,1.9409,-0.1522,144.2667,15.4328,14.6747,up
-0.4655,0.1335,0.9056,0.1935,2.0224,-0.2872,150.3787,38.1358,23.1898,up
-0.7899,0.0381,0.6565,-0.0337,0.9222,0.0484,155.2122,49.0472,22.1759,up
-0.8713,0.0219,0.4306,-0.005,0.6828,-0.1336,157.5937,59.682,23.7747,up
-0.9274,0.0456,0.3385,0.005,-0.2363,-0.0038,154.5523,59.7283,22.4301,up
-0.8812,0.0097,0.5413,0.1837,-2.8035,0.4461,145.8288,32.0386,18.3158,up
-0.3046,0.0772,0.8829,-0.0151,-1.5873,-0.0164,139.7446,9.2965,14.044,up
-0.0183,0.1241,0.9741,0.0698,-1.4993,0.3056,138.966,350.8209,13.261,up
0.2548,0.092,0.9526,0.141,-0.5894,0.0261,137.8893,343.3626,13.9015,up
0.3295,0.0699,0.9351,0.0852,0.0997,-0.02,138.7073,344.7279,13.7893,up
0.2635,0.0959,0.9304,-0.003,0.866,-0.1082,140.0241,353.8376,13.2584,up
0.1093,0.135,0.9338,-0.0843,1.6437,-0.0395,141.6195,7.3169,12.9576,up
-0.2071,0.0765,0.9129,-0.2263,1.7222,-0.1987,143.8663,24.3687,13.4671,up
-0.569,0.0396,0.6726,0.0113,2.4552,-0.1767,148.8461,53.0363,15.9227,up
-0.8777,0.0265,0.4545,-0.0321,0.4284,-0.0307,153.2809,62.1488,21.872,up
-0.8903,0.0354,0.4479,0.0847,0.1349,0.0348,154.7345,64.379,23.1724,up
-0.9234,0.0439,0.4253,-0.0635,-0.4732,-0.0153,150.8044,60.8933,20.3137,up
-0.7637,0.0561,0.6173,-0.0992,-1.4298,0.1267,144.1286,43.9272,14.0539,up
-0.5374,0.0503,0.8339,0.2245,-1.1067,0.0809,140.5193,30.4368,12.9502,up
-0.3271,0.0893,0.8997,-0.124,-0.7469,0.1609,140.0276,18.5985,11.0383,up
-0.1767,0.0901,0.9521,-0.1536,-1.0105,0.1774,140.7015,5.8725,8.925,up
0.0041,0.0607,1.0084,0.066,-0.8205,0.0482,140.6644,358.5317,8.3894,up
0.1481,0.0682,0.8822,0.0312,-0.2744,0.1032,142.3816,354.2509,8.062,up
0.224,0.0908,0.9641,-0.0934,0.2411,-0.0811,142.2165,354.174,7.9337,up
0.1295,0.1209,0.9563,0.0618,0.6263,-0.0304,142.7056,359.4504,8.3283,up
0.0465,0.0716,1.0033,0.0887,0.6226,-0.1007,143.1898,8.1326,7.1064,up
-0.0923,0.1263,0.9787,0.0316,0.5505,-0.116,143.1659,13.9893,6.8801,up
-0.2439,0.1508,0.9541,0.1614,0.6565,-0.1028,142.7346,21.6587,8.4049,up
-0.3927,0.1622,0.871,-0.0393,0.7439,-0.064,142.8737,30.6813,9.2805,up
-0.4803,0.1428,0.8327,0.0187,0.411,-0.0497,142.6627,34.8863,9.1722,up
-0.5751,0.1314,0.7786,-0.0081,0.5655,-0.0946,142.6213,41.6395,8.9269,up
-0.7037,0.1044,0.697,-0.01,0.8935,-0.1141,142.8742,52.7216,7.6213,up
-0.858,0.1034,0.4996,0.0429,0.6657,-0.0921,140.9848,62.2264,7.4761,up
-0.9029,0.0656,0.3665,-0.0094,0.472,-0.0399,140.9765,68.9342,8.5794,up
-0.9313,0.0588,0.3075,0.1097,0.1131,-0.0458,139.7187,72.6064,9.0581,up
-0.9404,0.0792,0.4396,-0.1129,-1.8209,0.2092,138.4277,52.574,8.6196,up
-0.4976,0.1059,0.9185,0.9814,-3.2152,0.2355,138.2328,21.5861,11.6185,up
-0.0977,0.1743,0.9624,-0.0873,-0.8622,0.1512,136.9051,5.0963,11.8506,up
0.1523,0.1391,0.9706,-0.134,-0.2275,0.0458,138.027,357.8134,9.6662,up
0.1287,0.1197,0.9472,-0.2215,0.3802,0.0379,139.0205,358.9987,7.9704,up
-0.0388,0.1333,0.9692,-0.1589,1.2336,-0.0751,140.3585,12.0963,7.9061,up
-0.3991,0.034,0.8927,0.0967,1.3511,-0.0033,143.0539,29.4127,9.2496,up
-0.6726,0.024,0.6816,0.0509,1.4651,0.0932,148.2726,46.8567,13.8652,up
-0.8844,0.0862,0.4733,0.1251,1.0448,-0.1282,149.898,60.8451,17.1022,up
-0.9108,0.0464,0.2642,-0.0019,0.6838,-0.0033,153.9573,68.2685,22.839,up
-0.9994,0.0495,0.2227,0.0506,-0.3458,0.0227,152.8822,68.0376,23.8451,up
-0.7536,0.0993,0.5637,0.119,-3.0926,0.3648,139.6913,33.1418,15.095,up
-0.2547,0.1581,0.9126,-0.0499,-2.1225,0.2273,135.2907,4.2506,13.6652,up
0.1139,0.1299,0.8924,-0.1238,-0.8248,0.0245,131.7147,350.147,14.1994,up
0.2354,0.118,0.9792,-0.08,-0.1466,0.0415,131.8694,346.1376,12.138,up
0.0812,0.1049,0.955,-0.1001,2.0891,-0.0578,136.6735,10.3224,9.7603,up
-0.3295,0.0063,0.9109,-0.1829,1.9398,-0.1191,138.7565,30.0776,7.9241,up
-0.642,-0.0463,0.7023,-0.1295,1.8133,0.098,141.095,51.9941,4.9597,up
-0.796,-0.0116,0.5958,-0.1295,1.1744,0.1111,143.5554,63.1027,4.8733,up
-0.8758,-0.0253,0.3563,0.1515,0.8601,0.1102,147.8201,72.5847,11.6488,up
-0.9641,0.0168,0.2773,0.1576,0.0507,-0.0413,148.8032,75.9443,15.0496,up
-0.8528,0.0388,0.4235,-0.2064,-2.1445,0.084,139.1765,51.4767,6.6032,up
-0.5122,0.0495,0.7957,0.0798,-1.6585,0.175,138.126,27.0693,6.5352,up
-0.1792,0.059,0.9482,0.0254,-1.3726,0.2397,139.8997,8.9155,5.8994,up
0.0468,0.1102,0.986,-0.0836,-1.2373,-0.0165,138.001,355,3.7582,up
0.1666,0.0857,0.975,0.0798,-0.1185,0.1209,140.0964,352.7187,4.8852,up
0.1995,0.0454,0.984,0.0322,0.1846,-0.0039,140.47,352.7238,3.8007,up
0.0434,0.0743,0.9794,0.0417,1.2896,-0.0699,140.7192,8.588,3.3676,up
-0.236,0.0792,0.8988,-0.4965,1.5813,-0.1526,139.6309,25.4733,359.789,up
-0.5699,-0.0314,0.7584,-0.1623,1.7624,-0.2788,134.6983,46.102,355.2775,up
-0.8234,0.0204,0.5371,0.0163,0.9668,-0.1022,127.8345,58.5332,350.4991,up
-0.9155,0.0092,0.3758,0.0924,0.6879,0.0713,125.0257,66.8971,350.8444,up
-0.9434,0.0294,0.375,0.1119,-0.7989,0.1253,124.896,61.9572,352.7747,up
-0.6568,0.0777,0.6738,0.1819,-2.397,0.3687,133.147,33.5959,1.9317,up
-0.1928,0.1141,0.947,-0.1275,-2.1997,0.3859,137.5725,7.108,0.0076,up
0.072,0.1151,0.9685,-0.0557,-0.9394,0.0936,138.5925,352.3411,2.2488,up
0.1777,0.0721,0.9631,0.0421,0.2059,0.0874,139.1843,353.2936,2.3454,up
0.0245,0.0697,0.9292,-0.0379,1.0578,-0.1084,138.7611,0.7016,2.5096,up
-0.1933,0.0614,0.9872,0.2245,0.6225,0.0501,139.3483,7.5293,2.3154,up
-0.3211,0.0588,0.9056,0.051,1.2343,-0.1032,139.4969,22.4092,2.4827,up
-0.642,0.085,0.7606,-0.0452,1.7551,-0.0846,139.1603,43.6282,2.9064,up
-0.8745,0.0279,0.4525,-0.0324,0.9997,-0.0788,136.8483,59.3247,1.4557,up
-0.9622,-0.0031,0.2666,0.0736,0.2829,-0.0201,137.0867,69.007,3.546,up
-1.0113,0.0595,0.2145,0.0107,-1.2168,0.1237,136.2625,62.4287,5.5933,up
-0.6373,0.1165,0.6097,-0.3173,-2.1126,0.1689,135.7023,30.1619,3.7571,up
-0.3466,0.0925,0.8917,-0.0715,-1.5393,0.2487,137.5806,9.7571,4.0603,up
-0.0711,0.1229,0.9533,-0.059,-1.4364,0.1818,138.6595,354.2004,4.9599,up
0.2121,0.1029,0.987,-0.0021,-0.5057,0.0358,139.8407,345.1692,3.3084,up
0.2141,0.0869,0.9555,0.1267,-0.0465,0.0634,140.8474,346.7818,4.6748,up
0.2808,0.0447,1.0023,0.2101,0.3179,-0.0093,143.0886,347.2748,4.117,up
0.0349,0.1095,0.9368,0.1115,1.4599,-0.4958,140.5438,3.5474,7.1701,up
-0.4979,0.0663,0.83,-0.3061,2.1728,-0.0606,142.1514,30.4886,6.3133,up
-0.8585,0.0085,0.5062,0.0165,1.7598,-0.1721,140.7237,55.0036,6.8151,up
-0.9234,-0.0017,0.3239,0.0317,-0.0572,0.0115,138.8946,57.5752,6.8821,up
-0.896,-0.0022,0.4655,0.433,-2.1164,0.2482,136.7414,38.4308,7.8322,up
-0.4201,0.0104,0.8676,0.2052,-2.3363,0.0894,136.4138,8.5301,8.9968,up
-0.0365,0.0699,0.9658,-0.11,-1.9781,-0.1501,133.63,344.867,5.5955,up
0.2565,0.0556,1.0294,0.2095,0.3732,0.1102,134.4704,344.3303,4.3018,up
0.1944,0.0779,0.9221,-0.0596,-0.1821,0.1609,135.9823,342.0241,3.2566,up
0.1256,0.1428,0.9789,0.0231,1.5598,-0.1482,135.2099,356.1213,4.5262,up
-0.4295,0.0626,0.9507,-0.5599,2.685,0.0085,136.3096,31.5432,358.5523,up
-0.7968,0.0838,0.5508,-0.027,1.4886,-0.2148,130.4973,54.5634,356.3404,up
-0.9525,0.0136,0.3465,0.0714,0.838,-0.0371,125.6294,69.5839,351.9722,up
-0.9325,0.0279,0.3,-0.0621,-0.3122,0.0204,126.6965,67.708,352.5882,up
-0.8777,0.0403,0.5895,0.273,-3.4386,0.2522,133.5328,31.1323,2.5004,up
-0.2871,0.0592,0.8174,0.0457,-1.7487,0.1569,133.6251,8.4537,2.4071,up
-0.0044,0.066,0.9733,-0.0343,-0.9158,0.2525,135.6066,354.65,1.688,up
0.25,0.0714,0.9568,-0.1488,-0.3556,-0.008,137.0967,347.5259,359.4626,up
0.1324,0.0665,1.0028,-0.1552,1.0094,-0.121,136.3597,1.4192,359.0118,up
-0.1498,0.049,0.948,0.043,1.8625,0.0866,136.2937,19.6255,0.5824,up
-0.5808,0.0209,0.8861,0.0326,1.2849,0.0369,138.1198,43.2519,357.4066,up
-0.779,0.0347,0.6214,0.0473,0.9385,-0.0758,136.2706,57.6958,357.1648,up
-0.8842,0.0308,0.4233,0.1835,1.1569,-0.1776,126.0585,73.9167,349.6722,up
-0.9266,0.0255,0.2664,-0.0003,-0.2172,-0.0037,122.9748,71.9221,348.1795,up
-0.8664,-0.007,0.581,0.227,-3.1133,-0.3248,127.1428,40.3162,352.179,up
-0.3441,0.0228,0.9346,0.4001,-2.2031,0.2782,132.8533,14.4648,357.916,up
0.0504,0.0605,0.9843,-0.116,-1.091,0.1484,136.2844,1.2572,356.3391,up
0.1542,0.0381,0.9792,0.0994,-0.0692,-0.1333,136.0735,358.3732,357.5049,up
0.1663,0.0699,0.9801,-0.1996,0.2405,0.0408,136.4449,358.3091,356.4023,up
-0.0657,0.0051,0.8339,-0.4088,1.527,-0.3319,132.1997,18.3623,356.2106,up
-0.3964,0.0367,1.0106,0.0115,1.1312,0.0682,128.4338,36.4955,350.7708,up
-0.6398,-0.0007,0.6241,0.3829,0.4006,-0.2033,123.9729,44.2673,352.3938,up
-0.7501,-0.0019,0.5488,-0.0667,0.9235,0.0194,121.0945,55.0259,351.9349,up
-0.8358,-0.001,0.4974,0.006,1.1013,0.0847,116.0151,69.3806,346.5002,up
-0.9654,0.0274,0.4881,0.0161,-1.2145,0.0527,124.198,60.7299,353.5016,up
-0.5556,0.0449,0.8602,-0.1202,-2.5713,0.3132,132.4996,30.5095,358.0063,up
-0.1893,0.0952,0.985,-0.0044,-2.2524,0.5331,137.5071,5.9515,1.3178,up
0.2247,0.0486,1.0072,-0.2802,-0.5136,0.0258,139.4082,354.4974,357.1946,up
0.096,0.0716,0.9992,0.0301,1.9329,-0.1159,137.6849,13.3607,355.9038,up
-0.3972,0.0335,0.8722,0.1141,2.0676,-0.0338,135.2905,39.4053,355.7475,up
-0.7526,0.0517,0.7457,0.2528,1.9381,-0.1312,128.981,60.2718,350.5023,up
-0.8637,0.0779,0.4192,0.0683,1.1535,-0.0148,121.3321,71.4839,346.9288,up
-0.9935,0.1005,0.2357,0.1156,0.422,-0.0704,107.2978,78.7255,336.5983,up
-0.9644,0.1158,0.3763,-0.0725,-2.5768,0.2326,127.5909,50.472,357.9948,up
-0.5596,0.1379,0.794,-0.1116,-1.6629,0.0997,131.9581,27.0671,359.4101,up
-0.1637,0.0709,0.9982,-0.1629,-2.0096,0.0875,135.3283,1.8032,354.6427,up
0.1947,-0.0188,0.9899,0.1957,-0.385,-0.0493,137.1144,352.2578,354.7827,up
0.1523,0.0228,0.9733,0.2008,0.7503,-0.0011,137.886,358.9968,357.7256,up
-0.1474,0.0694,0.9843,0.0631,1.6978,-0.1645,135.5176,20.5866,358.2767,up
-0.5102,0.0614,0.8627,-0.0319,2.0023,-0.097,134.7036,42.7715,358.2407,up
-0.7916,0.0206,0.4369,0.4253,1.8151,-0.0719,133.9727,66.4334,2.5983,up
-0.9752,0.0668,0.3039,-0.0903,0.0239,0.041,135.2779,69.7095,4.8564,up
-0.9461,0.0478,0.3836,0.3745,-2.1724,0.1275,131.5199,53.3019,3.6227,up
-0.4097,0.0881,0.811,-0.434,-2.8358,0.2515,134.7825,13.1985,3.0056,up
0.0359,0.0325,0.9831,0.0172,-0.7937,0.0863,138.1136,357.5651,0.0279,up
0.1144,0.0578,0.986,0.0978,0.6849,-0.0292,138.6624,1.343,359.9606,up
-0.1723,0.1008,0.9044,0.0938,1.9524,-0.0289,140.1756,22.506,3.1195,up
-0.6393,0.05,0.7547,0.2383,2.271,-0.1776,140.8767,49.9438,8.0943,up
-0.9283,0.0524,0.4201,0.0208,1.1638,-0.0066,143.8383,66.4422,12.3121,up
-0.9585,0.0391,0.2318,0.151,0.5416,-0.0854,144.4762,73.6307,15.4752,up
-1.011,0.0551,0.2603,-0.0708,-1.4421,0.0316,138.9563,64.9329,10.3591,up
-0.5828,0.1129,0.7455,-0.0653,-3.6428,0.5936,138.9154,20.9391,7.9935,up
0.1047,0.0605,0.8936,-0.5977,-1.6666,0.0325,140.5247,353.8841,359.8145,up
0.1714,0.1044,0.9597,0.3061,1.0526,0.0627,142.9432,2.8264,3.8363,up
-0.2355,0.0852,0.9753,0.0163,2.4167,-0.0765,144.0916,32.4465,6.0004,up
-0.6462,0.0886,0.7888,0.0224,1.286,0.0417,145.0687,49.4308,7.3147,up
-0.7153,0.0461,0.5442,-0.1737,1.3553,-0.0045,147.8837,63.4306,10.9843,up
-0.9715,0.0515,0.2522,0.0294,1.4103,-0.1926,167.9134,80.7355,33.787,up
-1.0002,0.0168,0.0582,0.1087,-0.0392,0.0915,173.2474,84.3508,42.227,up
-0.9126,0.0155,0.272,0.1384,-2.1567,0.2503,140.4604,59.8967,14.4131,up
-0.6139,0.1564,0.7552,0.0452,-3.0663,0.528,135.6055,23.0897,13.1717,up
0.0179,0.0918,0.9716,-0.2058,-1.1653,0.1688,136.7179,1.5683,8.3583,up
0.0878,0.1017,1.0101,-0.0509,0.1697,-0.0111,137.3185,0.3342,6.6626,up
-0.2456,0.0493,0.8797,-0.2689,2.6263,-0.0639,140.0543,32.6268,1.9267,up
-0.7282,-0.008,0.6665,-0.0997,2.2167,-0.1604,134.472,61.6579,355.5105,up
-0.9614,0.0138,0.259,0.2167,1.2799,-0.0202,113.3667,80.8751,337.4799,up
-1.0616,-0.0545,0.1777,0.1785,-1.7753,-0.1076,122.2185,70.4705,347.2831,up
-0.586,0.0568,0.7016,-0.0176,-2.87,0.524,138.9884,33.9475,1.1411,up
-0.1108,0.1226,0.9531,-0.0365,-1.7866,0.1978,142.2595,6.8976,2.5535,up
0.0897,0.1022,1.024,0.0252,-0.5301,0.0143,142.844,0.4581,2.4231,up
0.1598,0.0592,0.9492,0.1645,0.2384,0.0134,143.0381,1.4232,3.8142,up
-0.0069,0.1122,0.9992,0.1852,1.4803,0.0778,143.7424,18.0635,5.7719,up
-0.4105,0.0595,0.8556,-0.2592,2.1806,-0.1296,142.8534,44.678,1.2119,up
-0.781,0.0206,0.6151,0.0783,1.6556,0.05,146.5126,66.0744,6.1985,up
-0.9493,0.0461,0.3261,0.0964,0.903,0.0283,149.537,78.735,11.6503,up
-0.9713,0.051,0.1328,0.283,0.2198,0.0216,156.9638,83.0239,23.6621,up
-0.8926,0.0454,0.4267,0.2818,-3.8459,0.4565,138.8402,43.3892,10.4255,up
-0.1678,0.0993,0.9789,0.1804,-2.7115,0.3579,137.0425,5.9431,10.2691,up
0.1443,0.1129,0.9648,-0.0054,-0.0737,-0.1347,136.2519,1.1403,9.0335,up
0.1283,0.0969,0.995,0.0211,0.3509,-0.0192,137.065,4.236,9.6327,up
-0.0617,0.0532,0.9338,-0.3903,2.4199,-0.0556,139.6667,21.2265,6.3129,up
-0.6571,0.0357,0.6748,0.2484,2.5185,-0.0146,144.5633,51.7263,12.9023,up
-0.935,0.041,0.3336,-0.0907,0.7522,-0.0653,148.4745,64.7961,17.5805,up
-0.9592,0.0578,0.2593,-0.0558,-0.3217,-0.0378,144.9768,64.2343,16.0099,up
-0.8634,0.0376,0.5057,0.2652,-2.6958,0.1283,136.0505,39.3826,10.0368,up
-0.2905,0.0648,0.9039,0.0355,-2.4615,0.2877,133.3169,4.6106,7.8139,up
0.2177,0.0583,1.0533,-0.5085,-1.0416,0.015,133.0589,345.5475,359.494,up
0.2327,0.017,0.9404,0.256,0.4721,0.0254,134.425,347.7128,0.8278,up
-0.1558,0.0053,0.9119,0.0382,3.4779,-0.1038,134.8596,27.6804,0.3035,up
-0.8262,0.0563,0.6214,0.1106,1.8753,-0.1622,130.3748,55.6066,359.4468,up
-0.9296,0.0716,0.2978,0.2438,1.1465,0.0174,128.2632,72.2503,1.2579,up
-0.9982,-0.0125,0.2388,-0.105,-1.2725,0.2022,130.4028,63.5265,2.4525,up
-0.7516,0.085,0.5732,-0.0244,-2.1506,-0.0745,129.0604,35.984,2.835,up
-0.408,0.2222,0.8668,0.0098,-2.8152,0.7761,132.6237,1.7896,9.7829,up
0.0698,0.051,0.9307,-0.2968,-1.0743,0.0965,134.6211,347.1991,5.9947,up
0.0963,0.1027,1.0194,0.0486,-0.4278,-0.0211,134.686,345.6584,7.0448,up
0.129,0.0772,0.9733,0.2297,0.5847,0.0815,134.9575,350.4313,9.5191,up
-0.2496,0.0699,0.9241,-0.2291,3.4595,-0.2627,138.9179,26.8861,11.0443,up
-0.9034,-0.0002,0.5391,-0.274,1.5997,-0.0437,141.9603,53.9292,7.3233,up
-0.973,0.0323,0.2973,0.2267,0.4733,0.2263,150.5703,63.5876,18.1312,up
-0.9999,0.0255,0.3577,0.1026,-1.7585,0.1173,144.1143,47.9516,12.8858,up
-0.6474,0.0541,0.7613,0.2887,-2.914,0.1112,137.4026,16.9702,11.0328,up
-0.0876,0.1076,0.8929,0.0043,-1.4253,0.2355,135.593,355.4613,14.1371,up
0.0926,0.0981,1.0072,0.132,-0.338,0.0659,135.1626,348.2493,13.3874,up
0.0921,0.0881,0.9901,-0.2489,-0.1242,0.054,134.7741,346.4025,11.7055,up
0.0325,0.0808,0.9504,-0.1542,1.2552,0.0485,137.2728,356.2275,10.1163,up
-0.3777,0.0668,0.8975,-0.0424,2.0044,0.0562,139.894,21.2484,10.5078,up
-0.6161,0.0323,0.7199,0.3644,1.0741,-0.0746,141.4493,36.3732,13.3901,up
-0.7901,0.0648,0.5929,-0.0892,0.7705,0.0351,148.517,45.352,17.9479,up
-0.8827,0.0881,0.4228,0.2544,0.8114,0.062,154.7098,55.9494,26.0739,up
-0.9214,0.0964,0.3248,0.0554,0.0988,-0.0542,154.3324,59.0135,27.4205,up
-0.9827,0.0961,0.3326,0.1821,-1.2479,-0.0081,146.4845,52.0894,21.9223,up
-0.6423,0.0959,0.7601,0.1861,-3.0731,0.2808,137.8661,19.9767,15.7317,up
-0.0874,0.1151,0.9046,-0.3524,-1.5304,0.0948,135.0611,357.0895,10.2963,up
0.1503,0.1284,1.0277,-0.0005,-0.3774,0.1446,135.7117,352.4092,10.3851,up
0.13,0.1644,0.9575,-0.0861,0.042,0.0289,134.5758,352.374,11.7121,up
0.1186,0.0507,0.9421,-0.015,1.6074,-0.2399,136.1522,6.4034,11.6175,up
-0.4043,0.0439,0.9302,-0.1344,1.5124,-0.1116,139.1341,31.2731,8.2951,up
-0.5307,0.0272,0.7347,-0.033,1.3221,-0.1568,140.1651,46.0435,9.2346,up
-0.8131,0.0158,0.5176,0.0647,1.4204,-0.0817,143.1472,63.4744,12.642,up
-0.9182,-0.0159,0.3453,0.1726,0.8157,-0.1769,141.3229,71.5881,12.9978,up
-0.9609,-0.0012,0.2298,-0.0751,0.0552,0.0378,144.716,74.1468,15.2568,up
-0.9718,-0.0012,0.318,0.1365,-1.9842,0.0317,132.9729,56.2095,6.1933,up
-0.5171,0.052,0.7998,-0.5278,-2.7612,0.1511,134.5603,16.9741,2.5953,up
-0.1266,0.0745,0.9321,0.1179,-1.1067,0.2384,137.0651,359.2022,3.8052,up
0.1413,0.0488,0.9563,-0.2679,-0.5548,-0.0364,136.2052,349.425,1.4568,up
0.242,0.0566,0.9724,-0.0762,0.2481,-0.0243,136.5744,349.9553,0.6471,up
0.0778,0.0422,0.9558,-0.042,1.3107,0.2139,139.2216,2.4821,0.6814,up
-0.3475,0.0629,0.9051,-0.2277,1.8192,0.0224,140.2736,25.0173,358.9973,up
-0.7822,0.0571,0.6226,0.1904,1.8082,0.0142,138.0972,49.8081,0.9778,up
-0.9138,0.0592,0.4082,0.126,0.9625,-0.1398,132.766,62.6626,359.3942,up
-0.9422,0.0454,0.2659,-0.0185,-0.2535,-0.0349,130.4312,62.7866,358.7241,up
-0.8536,0.0595,0.5393,0.1465,-3.7617,0.4056,133.5768,26.4292,3.45,up
-0.017,0.1202,0.9338,-0.4449,-1.5121,0.2974,137.0732,355.2543,1.5044,up
0.1316,0.035,0.9619,-0.0314,-0.1606,0.0654,137.9375,348.3646,2.0607,up
0.0667,0.0794,0.9434,-0.2913,1.6057,0.0049,137.4165,3.3094,1.6557,up
-0.2281,0.0153,0.955,0.056,2.3439,-0.2449,135.5347,22.9445,358.3953,up
-0.6203,0.0585,0.6677,0.1476,2.1885,-0.1554,131.3193,48.7068,356.8939,up
-0.9303,0.0993,0.435,-0.1097,0.0865,-0.0254,128.5265,51.8052,354.6681,up
-0.9039,0.0898,0.3526,0.0155,0.2642,-0.018,129.6659,55.9764,357.8793,up
-0.8866,0.0898,0.2634,-0.0318,-0.5613,0.0357,130.318,53.9206,359.3126,up
-0.8252,0.0935,0.5127,-0.0037,-2.6887,0.3546,132.8592,24.1266,4.525,up
-0.2335,0.1136,0.9565,-0.2581,-2.5799,0.6081,138.5958,351.6717,1.666,up
0.103,0.1049,0.9304,0.1285,-0.4102,-0.1314,137.7436,343.5885,3.2229,up
0.1234,0.142,0.9395,-0.0001,1.1808,-0.2154,137.3555,354.3847,6.1067,up
-0.1629,0.0925,0.9575,-0.1057,1.2688,-0.0608,137.0276,9.9266,6.1779,up
-0.4712,0.0172,0.7725,-0.34,2.0043,-0.2829,135.6374,34.9008,2.2322,up
-0.8049,0.0158,0.4867,-0.562,2.3962,-0.0342,136.2469,60.6338,0.9635,up
-0.9876,0.0063,0.2249,0.131,0.5834,0.0406,136.7986,71.5002,3.8899,up
-0.9286,-0.0036,0.1372,0.2192,-0.3622,-0.0348,137.0915,69.4882,7.838,up
-0.7598,0.0845,0.3687,-0.0731,-2.8332,-0.0532,130.2547,35.5907,6.8858,up
-0.4295,0.0507,0.755,0.2241,-1.9275,-0.0098,126.4725,12.7692,9.5888,up
-0.0839,0.0595,1.042,0.3979,-1.1224,0.1634,131.064,3.9997,9.62,up
0.3052,0.0323,0.9458,-0.0892,-0.1909,-0.1106,129.4468,355.1655,8.24,up
0.208,0.0274,0.9365,-0.3681,0.355,0.2807,133.2345,355.7365,4.3147,up
-0.0681,-0.0803,0.9587,-0.2114,1.8555,0.0467,132.3658,17.4321,358.4869,up
-0.507,-0.1315,0.8415,-0.1699,2.1277,0.1649,133.3865,47.1865,356.4795,up
-0.778,-0.1307,0.532,0.1154,1.4328,0.197,139.0739,66.4237,4.1443,up
-0.8792,-0.118,0.262,0.277,0.9313,0.1936,153.3767,79.2861,21.1712,up
-0.9748,-0.0234,0.1172,0.1054,0.0369,0.0974,163.1666,80.4689,33.0199,up
-0.9849,0.0219,0.3612,0.172,-2.3913,0.2238,140.4377,57.9429,12.562,up
-0.705,0.068,0.6777,0.0996,-2.6833,0.2092,136.9272,33.3951,11.938,up
-0.3199,0.0585,0.9109,-0.0855,-1.858,0.014,135.0274,13.6001,9.4084,up
-0.0067,0.0714,0.9755,-0.236,-0.9786,0.2055,135.7009,358.4223,4.6311,up
0.1329,0.0517,0.9992,-0.1771,0.3711,-0.1537,135.05,358.8786,3.8155,up
0.001,-0.0388,1.0204,-0.3665,0.9984,0.0855,136.5745,9.7514,355.0479,up
-0.3537,-0.0036,0.9268,0.2252,1.4129,0.0772,135.7377,33.132,355.848,up
-0.686,0.1357,0.6295,0.2136,2.3014,-0.1219,134.4748,63.8303,3.2218,up
-0.954,-0.0104,0.2627,-0.0002,1.7083,-0.0397,136.0853,83.8438,7.2838,up
-1.0125,0.016,0.0027,-0.0326,-0.4319,-0.0401,131.3549,84.0851,5.6017,up
-1.012,0.0114,0.2288,0.7255,-2.7798,0.196,123.9744,56.8612,7.5691,up
-0.7274,0.0677,0.649,-0.2843,-3.1371,0.0983,120.9602,26.2098,3.2163,up
-0.1711,0.0041,0.9299,0.0584,-1.9982,0.1191,123.0755,358.7302,3.4893,up
0.2005,0.032,0.9548,0.0068,-0.8693,0.156,127.3981,344.9647,359.8264,up
0.2594,0.0267,0.9455,0.0505,1.0125,-0.2111,128.1212,353.4212,1.1919,up
-0.1516,0.018,0.9831,0.0318,1.8106,-0.0019,129.0999,17.1101,2.5227,up
-0.5514,0.0342,0.8685,-0.0509,1.5409,0.0885,130.8117,36.185,3.0359,up
-0.8232,-0.0186,0.6565,0.045,1.31,-0.2832,125.5979,55.4711,359.104,up
-0.9634,0.0364,0.3436,0.0269,0.5717,0.0223,126.2961,66.6971,1.902,up
-0.9177,0.0221,0.3144,0.2658,-0.7563,0.0006,123.5103,60.7958,3.3359,up
-0.7032,0.0211,0.6828,0.1442,-2.6671,-0.1051,120.5225,30.6038,1.6363,up
-0.2868,0.0427,0.9236,-0.189,-1.8283,0.142,123.3937,4.3445,2.1595,up
0.1881,-0.0027,1.0128,0.0031,-1.4316,0.1808,127.3296,344.1053,358.4479,up
0.2987,0.0051,1.0199,-0.0131,-0.0862,0.0219,129.1115,342.3915,357.0691,up
0.1913,0.0605,0.8795,-0.0561,1.2708,-0.1057,128.7543,354.4278,358.8046,up
-0.2194,0.0641,0.8776,-0.3506,2.7176,-0.1769,125.6526,22.9321,357.7483,up
-0.7546,0.0134,0.5664,0.1012,1.7882,-0.0391,120.8332,48.0394,353.4627,up
-0.9671,0.0138,0.253,-0.0109,0.5588,-0.0227,115.5054,62.2509,349.9272,up
-0.9819,0.0117,0.3329,0.2035,-1.6513,-0.1861,115.0083,49.1467,351.3587,up
-0.5951,0.0529,0.7984,-0.1804,-3.4032,0.397,125.8926,12.1323,354.776,up
-0.0025,0.0085,1.0564,0.1045,-0.8455,0.145,130.3701,355.9848,355.1386,up
0.0221,0.043,0.976,0.0063,0.2805,-0.0346,130.848,356.4999,355.4423,up
-0.292,0.0403,0.9955,0.0619,2.0795,-0.1397,127.1398,26.0639,355.7302,up
-0.6117,0.0019,0.7506,-0.3471,1.2001,-0.0423,123.6632,40.8146,349.4232,up
-0.7938,-0.0357,0.5588,0.3258,1.5086,0.0176,119.2287,58.6049,348.2311,up
-0.9836,0.0051,0.2671,-0.1608,0.9692,-0.1504,107.3934,69.4595,338.7743,up
-1.0135,-0.0164,0.1162,0.0322,-0.2179,0.1533,103.8494,73.1885,337.2212,up
-0.8869,0.0124,0.4036,0.3232,-3.2121,0.1554,121.0872,38.7894,356.3201,up
-0.3221,0.0323,0.9058,0.0761,-2.5108,0.2122,127.1688,6.7814,355.2781,up
0.0162,0.0017,1.0279,0.0077,-1.5661,0.0155,129.9217,351.6275,353.5625,up
0.1717,0.0141,1.0018,-0.0384,-0.031,0.0488,131.671,350.3058,353.273,up
0.0863,0.0209,0.9309,-0.0463,1.5261,0.0281,130.9864,0.3282,354.9707,up
-0.295,-0.0692,0.9014,-0.0042,2.3394,0.0308,130.0481,27.0663,354.6326,up
-0.7768,-0.0137,0.5985,-0.2846,1.7909,0.3249,124.9191,52.5814,349.7085,up
-0.9175,-0.0446,0.3909,0.0838,0.768,-0.0104,118.8394,65.4179,345.0151,up
-0.9496,-0.0096,0.2091,0.2078,0.1361,0.0064,114.3138,70.7696,343.954,up
-0.7452,0.0456,0.4435,-0.2583,-3.6605,0.6426,131.8158,25.1128,359.3082,up
-0.2128,-0.006,0.8154,0.238,-1.1721,-0.2651,131.4158,4.5022,3.023,up
0.0296,0.0816,0.9482,-0.6047,-1.7246,0.4682,137.2322,340.9559,356.0596,up
0.135,0.0534,0.9399,0.147,1.0108,-0.0318,136.8844,348.4146,0.9589,up
-0.3443,0.043,0.9014,0.0874,2.1791,0.0782,136.0401,16.299,4.0263,up
-0.7227,0.0622,0.7326,0.2353,1.8211,0.1255,141.2689,43.2683,8.6686,up
-0.8763,0.0369,0.4411,0.0487,1.4595,-0.1586,141.8272,58.8528,10.8592,up
-1.0096,0.026,0.1226,0.0496,-0.0587,-0.0664,141.6294,64.289,13.1686,up
-1.0135,0.0199,0.2393,0.0292,-2.3553,-0.0246,132.3353,45.9583,9.7225,up
-0.5786,0.06,0.7213,-0.0936,-2.9087,0.1819,127.6838,10.1436,9.0546,up
-0.117,0.0019,0.9745,-0.3077,-2.3595,-0.0047,126.1618,342.2165,4.5972,up
0.113,-0.0181,0.9758,0.4278,1.2794,0.0057,128.0873,350.4905,7.9557,up
-0.3248,0.0403,0.9446,0.414,2.1282,-0.1345,130.5236,16.9902,12.831,up
-0.784,0.1095,0.7301,-0.1785,1.4837,0.0457,131.6551,38.5364,9.307,up
-0.8775,0.0015,0.4138,0.0707,1.6056,-0.1641,136.7374,57.1625,14.8077,up
-0.9733,0.0236,0.1611,-0.0301,0.6343,0.1538,146.7394,67.8033,24.8399,up
-1.0105,0.0153,0.2244,0.0509,-2.1039,-0.0078,133.2187,51.9269,14.2276,up
-0.5973,0.0643,0.6704,-0.0771,-2.982,0.2375,126.3097,15.7946,9.7594,up
-0.1661,0.0828,0.9616,0.016,-1.5098,0.3646,128.4056,354.6141,11.1633,up
0.1692,0.0041,0.9553,-0.3642,-0.7423,-0.016,128.0859,342.4939,6.3263,up
0.1736,-0.007,0.9621,0.0878,0.4303,0.0029,129.4246,347.322,6.7896,up
0.0815,0.0126,1.0311,0.0069,0.444,0.0142,131.0392,353.4445,6.0496,up
0.0019,0.0087,0.9404,0.0121,0.8359,-0.1388,130.2757,358.4233,6.6372,up
-0.2466,0.0303,0.9482,-0.0637,1.5656,0.1324,134.6869,16.3217,8.2392,up
-0.544,0.0456,0.7923,0.1061,2.0259,0.0579,139.0633,35.0584,10.4536,up
-0.9612,0.0505,0.4628,0.2011,1.2464,-0.1476,142.5278,55.6649,15.2245,up
-0.9691,0.0017,0.2478,0.038,0.0807,-0.0905,143.6748,62.7651,17.4352,up
-0.8276,-0.0154,0.5169,-0.0228,-3.6954,0.0787,134.594,29.0886,9.544,up
-0.1989,-0.0123,0.9499,-0.2729,-2.5283,0.2586,133.9783,354.8868,7.316,up
0.1942,-0.0017,1.0233,-0.1563,-0.0285,0.1272,135.6305,346.2832,1.1728,up
0.1651,0.0007,0.9109,-0.2843,0.3518,0.2531,138.4423,346.7341,358.4966,up
-0.0237,-0.0089,0.9114,-0.1038,1.8521,0.1788,140.9252,3.0028,358.3635,up
-0.4201,0.0534,0.8295,-0.05,1.6783,-0.3639,137.8756,29.3257,0.1109,up
-0.7467,0.0522,0.6039,0.1066,2.3029,0.3545,143.6948,56.1559,7.1325,up
-0.992,0.0609,0.1674,0.322,1.3121,-0.1354,138.441,76.6816,7.594,up
-0.9713,0.01,0.0734,-0.1343,-0.4768,-0.0722,131.6463,73.3878,1.4889,up
-0.9548,0.0134,0.3724,0.3849,-2.6729,0.0038,130.2436,46.3984,4.1466,up
-0.4312,0.0573,0.6295,-0.4318,-2.0156,0.4363,133.0225,10.7816,5.3752,up
-0.1459,0.0721,0.9755,-0.1744,-1.373,0.1132,133.0649,352.1225,3.7954,up
0.1605,0.024,0.9648,-0.2116,-0.9613,0.0371,134.4579,339.1149,0.7787,up
0.2364,0.0136,0.9558,0.2196,0.4792,-0.1168,133.2347,341.9105,3.022,up
0.0138,0.0231,0.9784,0.2004,0.9746,-0.2695,130.7075,355.3821,5.3293,up
-0.2732,0.034,0.9609,-0.0079,1.0622,-0.1064,131.68,13.1759,4.2753,up
-0.5055,0.0299,0.7879,0.1433,2.036,-0.0233,134.9523,36.6815,8.1903,up
-0.8252,0.0379,0.5303,-0.0778,1.2742,0.0469,138.6913,52.9417,8.9308,up
-0.9782,0.0299,0.2383,0.2462,0.7363,0.0774,143.7149,65.9442,16.4693,up
-0.9957,0.0238,0.3248,0.1268,-1.5245,0.071,136.3435,53.6323,11.8651,up
-0.7264,0.1197,0.6,0.0074,-1.8516,0.1795,132.7458,29.6129,9.7406,up
-0.4206,0.1037,0.8944,-0.0574,-1.2267,0.0952,131.2105,12.5763,7.907,up
-0.0891,0.05,0.9568,-0.1854,-1.613,0.0512,129.9443,350.9711,5.9656,up
0.1733,0.0444,1.0048,-0.1377,-0.5688,0.0539,130.7457,342.1575,3.1087,up
0.1649,0.0371,0.9485,0.0309,0.4321,0.0387,131.3264,344.9006,3.3114,up
-0.1039,0.0792,0.9977,-0.4654,2.2937,-0.1379,129.0444,18.4746,356.9421,up
-0.4897,0.0066,0.8507,-0.1072,1.412,-0.0624,127.9275,35.9437,355.715,up
-0.6798,-0.0089,0.6534,0.0153,1.3744,-0.0887,123.9745,50.6994,352.9097,up
-0.8674,0.016,0.4309,-0.0244,0.5167,0.0799,120.5301,58.8271,351.2751,up
-0.9417,0.0078,0.4352,-0.0125,-1.0654,0.0292,122.6316,52.6285,353.5116,up
-0.5344,0.0415,0.8023,0.074,-2.7438,0.3798,131.1815,20.8606,359.2179,up
-0.1293,0.058,0.9504,0.0468,-1.2691,-0.0224,131.5279,5.3618,0.2323,up
0.1464,0.0228,1.0172,-0.7104,-0.8727,-0.1532,132.1839,355.7934,352.8124,up
0.1666,0.0253,0.949,0.1369,0.1435,0.0988,133.2907,355.1856,355.3212,up
0.0422,0.0782,0.9992,-0.1056,1.2809,-0.1938,129.628,7.8698,354.6743,up
-0.3614,0.0032,0.8851,-0.2522,1.8777,-0.0866,124.1226,32.6593,348.5456,up
-0.622,0.0017,0.7016,0.0514,0.8588,0.0973,123.2614,43.9657,350.5857,up
-0.7909,0.009,0.5649,0.0058,0.6453,-0.0481,120.181,52.9271,347.8816,up
-0.8686,0.0238,0.4445,0.1778,0.7363,0.0619,116.4064,62.4715,348.2626,up
-0.8861,0.0364,0.3963,-0.002,-0.1674,-0.0056,117.94,61.7495,349.8347,up
-0.8415,0.026,0.5627,0.1064,-2.6292,0.3138,124.9086,34.602,358.4797,up
-0.4969,0.0578,0.8225,0.243,-1.0022,-0.0429,126.0572,21.2142,2.3934,up
-0.1506,0.0976,0.9548,-0.265,-1.2138,0.2454,130.9728,3.2899,358.5274,up
0.0914,0.0602,0.965,-0.2937,-1.1821,0.0811,134.2605,346.5734,354.5113,up
0.2044,0.0357,0.9502,-0.0116,-0.1352,-0.0206,134.6453,344.5044,354.3689,up
0.0128,0.0561,0.9592,-0.1511,2.1489,-0.0365,129.9504,10.5072,354.2934,up
-0.3189,0.0274,0.9373,-0.061,1.2814,0.0341,128.6294,24.6001,353.2252,up
-0.5482,0.0422,0.7611,-0.0803,1.4323,-0.0759,125.1815,38.6106,353.2302,up
-0.7933,0.0435,0.5759,0.1198,1.2118,-0.1028,121.0449,54.6556,351.753,up
-0.9372,0.0163,0.3875,-0.0693,0.6361,0.0646,117.4514,63.6441,349.2896,up
-0.9328,0.0209,0.2688,0.0164,-0.0437,-0.069,112.9647,66.2152,346.3903,up
-0.9022,0.0172,0.4292,0.0409,-2.0046,0.063,120.0648,44.8267,354.4239,up
-0.5899,0.0245,0.7538,-0.0013,-1.6528,0.1259,124.733,21.8468,359.2185,up
-0.2207,0.0437,0.8815,0.203,-1.8415,0.128,127.601,2.8791,359.4398,up
0.113,0.0818,0.9853,-0.0996,-1.0477,0.0935,129.4013,346.2401,0.9968,up
0.2449,0.0391,0.9594,-0.0304,0.2723,-0.0844,129.8779,345.4955,359.996,up
0.0512,0.0046,0.9514,0.1752,1.0961,-0.154,129.3323,358.3488,0.079,up
-0.2693,0.0432,0.91,0.0002,1.3963,0.072,129.7796,14.4428,1.8033,up
-0.5287,-0.0166,0.7377,-0.0548,1.7745,-0.1271,130.5485,33.5162,2.962,up
-0.7153,-0.0055,0.5308,-0.0084,1.2543,-0.0538,130.892,46.3446,6.441,up
-0.8701,0.0214,0.4423,0.0491,0.812,-0.048,130.5672,56.8991,5.955,up
-0.9664,0.0087,0.2191,0.1191,0.117,-0.0403,127.8644,61.9005,6.4938,up
-0.8681,0.0002,0.4067,-0.2819,-2.1218,0.2276,128.3025,39.2446,4.2722,up
-0.6062,0.033,0.7874,0.2083,-2.0723,0.1216,127.6428,14.8541,6.3383,up
-0.2071,0.0325,0.9321,-0.0254,-1.2486,0.1512,128.0312,356.5809,5.0147,up
0.0339,0.0668,0.9636,-0.0385,-1.0488,0.1243,128.3926,341.4245,6.2471,up
0.1927,0.0243,0.9899,0.0704,0.1767,-0.0082,129.2844,341.4537,6.0129,up
0.0405,-0.0246,1.0381,-0.1027,2.3022,-0.0736,131.1131,9.6985,0.1086,up
-0.4554,-0.0051,0.8715,0.0475,1.2637,0.0156,130.9258,28.4477,358.6672,up
-0.7042,0.0068,0.685,0.2583,1.3666,-0.0977,129.6888,45.2883,1.2282,up
-0.9113,0.016,0.4092,-0.0181,0.9274,0.2279,131.4309,59.044,4.3113,up
-0.9397,0.035,0.2983,-0.0118,0.0378,-0.0144,131.0417,62.7938,4.4936,up
-0.8624,0.0648,0.4608,-0.1171,-1.8051,0.1429,129.2732,41.4497,3.3885,up
-0.5534,0.032,0.7372,0.0035,-1.6481,0.1264,128.9653,19.0516,4.3954,up
-0.236,0.0308,0.984,-0.0625,-1.6906,0.2144,130.4362,356.9807,2.6689,up
0.0499,0.0248,1.0537,-0.1141,-0.5883,0.1264,132.8075,347.1251,1.0567,up
0.0618,0.0371,0.9843,0.013,0.529,0.0614,134.2762,351.2239,1.3291,up
-0.1249,0.0566,0.9775,-0.005,0.8775,0.0162,134.6042,3.1624,2.5481,up
-0.3582,0.0286,0.8476,-0.199,2.2864,-0.1216,134.1137,28.1546,0.0695,up
-0.7758,0.0238,0.6607,0.0136,1.1841,0.0583,134.697,46.331,1.2658,up
-0.8661,0.0299,0.4513,0.1083,1.1224,-0.0116,134.1663,60.3199,2.5942,up
-0.9619,0.0282,0.2281,0.0686,0.4007,0.1164,139.796,69.1091,10.5921,up
-1.0214,0.0762,0.2427,0.075,-1.5104,0.0736,135.9128,59.4936,9.4058,up
-0.7082,0.0551,0.6049,0.3144,-1.8711,0.0834,130.066,36.7572,8.0763,up
-0.4475,0.068,0.8544,-0.4467,-2.0541,0.208,130.1635,13.1978,4.4782,up
-0.0787,0.0503,0.9928,0.0197,-0.9221,-0.1011,128.8849,2.1942,2.2429,up
0.0133,0.0473,0.9675,-0.1318,-0.4921,0.0901,129.3927,355.1524,1.0472,up
0.0655,0.0017,0.9992,0.0026,0.802,-0.0693,129.5808,1.3666,0.5826,up
-0.3034,-0.0096,0.9182,0.1113,1.9673,0.1112,130.1209,20.8499,1.2725,up
-0.6502,-0.0159,0.8115,0.2986,0.8414,-0.0247,128.1582,36.0705,0.5882,up
-0.7343,0.001,0.6263,0.0631,1.1282,0.1011,130.3631,50.4982,2.8241,up
-0.934,0.0214,0.4177,-0.0182,0.949,-0.0571,130.949,63.6492,3.5659,up
-0.9444,0.0386,0.2839,0.0704,0.3143,0.1185,135.5139,68.9824,9.1849,up
-0.9511,0.026,0.2732,-0.0536,-1.2981,-0.1335,132.1516,59.2949,6.2801,up
-0.586,0.0721,0.6375,-0.4394,-2.6396,0.1011,131.0121,21.5629,3.4712,up
-0.0773,0.0391,0.9845,0.0649,-1.3079,-0.1484,130.3496,2.5296,4.5922,up
0.0335,0.0442,1.0472,0.0622,-0.6063,-0.0755,129.681,357.1838,4.3155,up
0.1164,0.0959,0.9931,0.0188,0.3561,-0.0119,129.9141,358.8287,5.5046,up
-0.0605,0.0398,0.9719,0.071,1.054,0.0299,132.0694,7.3213,4.8908,up
-0.1688,0.0415,0.929,-0.0439,0.191,0.0365,132.3795,8.8521,5.3351,up
-0.2809,0.0085,0.9872,-0.0414,1.0496,0.1065,135.6876,23.6512,3.0937,up
-0.6156,0.0141,0.8495,0.2704,1.1382,0.13,138.3856,41.0936,5.4895,up
-0.743,0.0199,0.5868,-0.2042,1.0533,-0.0258,139.2719,53.7396,4.2523,up
-0.8871,0.0214,0.4306,0.1999,1.0835,0.0423,141.2609,65.0309,8.059,up
-0.9543,0.0452,0.211,0.1229,0.3605,0.0692,145.095,72.0201,14.9611,up
-0.9925,0.0228,0.4662,0.5847,-3.4082,-0.0218,133.2251,42.0019,8.6411,up
-0.4608,0.0328,0.8359,0.855,-2.064,-0.0172,125.3524,14.9326,16.3919,up
-0.1205,0.125,0.9531,-0.2448,-1.7909,0.2738,123.5664,351.3783,14.6818,up
0.137,0.1372,0.9918,-0.02,-0.3884,-0.0811,122.6411,344.2489,15.2919,up
0.047,0.0986,0.9063,-0.2506,1.377,0.2274,128.835,353.6438,12.1978,up
-0.2686,0.0352,0.9643,-0.1468,1.4775,-0.0004,132.4235,11.7726,9.7084,up
-0.5443,0.025,0.7633,-0.1282,1.4943,-0.1315,134.0433,32.0831,7.9856,up
-0.7321,0.0563,0.5956,0.1012,1.6886,-0.0863,135.8994,49.3081,10.2784,up
-0.9767,-0.0036,0.3049,-0.0979,0.7536,0.0084,140.2819,64.1515,13.8587,up
-0.9153,0.0255,0.3202,-0.0304,-0.9281,0.0142,136.8061,56.4357,10.2421,up
-0.8296,0.017,0.5995,0.2631,-2.0438,0.0332,132.3605,35.7801,7.5407,up
-0.4586,0.0872,0.8912,0.151,-2.0169,0.1492,131.3207,12.7498,7.7332,up
-0.0548,0.091,0.9753,-0.1517,-1.3337,0.144,132.0087,354.5254,5.5452,up
0.1195,0.043,1.0038,0.0058,-0.0323,0.1059,133.4035,352.7028,4.3101,up
0.0538,0.0575,0.9809,0.1307,0.7401,0.0402,134.2104,1.4371,6.0773,up
-0.2009,0.0408,0.9719,-0.125,1.5352,0.0858,137.1229,21.8535,3.3126,up
-0.449,0.017,0.8744,-0.0046,0.968,0.0085,137.6132,34.5027,2.1059,up
-0.66,-0.0036,0.6989,-0.0663,1.4509,0.0833,137.4523,50.1225,1.6157,up
-0.8587,-0.007,0.4952,0.0443,0.8327,0.0308,137.8287,62.6734,2.7347,up
-0.9323,-0.001,0.3002,-0.0972,0.7117,-0.0114,137.5184,71.5753,4.2923,up
-0.9656,-0.0135,0.2464,-0.0481,0.1652,-0.0893,133.1577,74.7301,359.2684,up
-0.9718,-0.0347,0.1633,0.1305,-0.0261,0.0573,133.2108,77.249,1.5691,up
-0.9644,-0.0275,0.2547,0.1555,-1.0512,-0.0014,132.4149,69.9231,2.0252,up
-0.8884,-0.0166,0.4282,0.0514,-1.8819,-0.0038,130.1581,52.3812,2.0247,up
-0.625,0.0121,0.6982,0.0703,-1.7323,0.0955,129.6723,29.1205,5.2151,up
-0.1945,0.0503,0.9426,0.0071,-1.4855,0.1278,130.2346,8.1139,6.2377,up
0.0364,0.0483,0.9726,-0.0647,-0.8291,0.0322,130.7676,355.9551,4.9152,up
0.0684,0.0617,0.9628,-0.119,0.7203,-0.0197,131.3265,0.7419,4.4287,up
-0.3157,-0.0813,0.8995,-0.2898,1.7686,0.0652,132.4017,23.7431,358.8674,up
-0.6428,-0.068,0.736,-0.1716,1.8248,0.1706,134.6344,47.2749,359.5368,up
-0.8175,-0.0316,0.5193,0.0184,0.8001,0.027,135.3944,57.0436,1.5989,up
-0.9121,-0.0374,0.3326,0.1785,0.7423,-0.0304,135.9285,68.6678,4.5857,up
-1.036,0.0107,0.2388,0.1452,0.7066,0.0136,127.9259,80.0313,357.0061,up
-0.9511,-0.0343,0.1138,0.0248,-0.7494,-0.0087,128.3424,75.2368,358.9757,up
-0.8501,-0.0514,0.5266,0.1595,-2.8132,-0.1147,127.8631,44.0203,359.2937,up
-0.5048,-0.0557,0.9022,-0.0005,-2.2659,-0.0224,129.0335,18.2593,1.2161,up
-0.1977,-0.0333,0.9192,0.2206,-1.2118,-0.0124,127.9985,2.3525,1.1852,up
0.0773,0.0053,0.9979,-0.0311,-0.882,-0.0127,127.8945,350.5486,1.9873,up
0.1506,0.0002,0.879,-0.047,0.5349,0.0576,129.6011,351.2025,2.2706,up
-0.0536,-0.0497,0.9582,-0.514,1.7616,0.0686,131.2395,9.9047,353.9724,up
-0.3666,-0.014,0.8756,-0.0204,1.6574,0.0701,129.0421,26.3418,354.1075,up
-0.5566,-0.0212,0.7126,0.0047,1.363,0.0463,127.7525,41.1752,354.6272,up
-0.8178,-0.0562,0.6117,0.0896,1.2603,0.0454,125.8119,54.236,354.4235,up
-0.8849,-0.0152,0.3707,-0.072,0.6556,0.0487,125.1176,62.9877,355.6409,up
-0.92,-0.0029,0.3263,0.0777,0.0378,0.0291,125.2745,64.4677,356.6798,up
-0.991,0.0141,0.416,0.0383,-1.9151,0.1531,125.3478,48.0601,358.6998,up
-0.5569,0.0272,0.7547,0.2344,-1.9622,-0.0015,125.8914,22.3441,2.0616,up
-0.2688,0.0711,0.9838,-0.0001,-1.9866,0.067,125.7884,358.1576,1.8657,up
0.1285,0.0915,0.9443,-0.0142,-0.84,0.1219,127.8952,344.5482,1.7666,up
0.2347,0.0027,1.0296,0.1217,0.6239,0.136,130.992,345.3588,1.0112,up
-0.1476,0.0558,0.9463,-0.3242,2.1725,0.0605,132.1773,9.4873,0.6223,up
-0.5815,0.0012,0.7781,-0.1434,1.5155,0.1287,133.4387,33.0112,357.9113,up
-0.7536,-0.014,0.5359,-0.0973,1.4291,0.0505,132.3297,51.3588,356.8528,up
-0.9733,-0.0055,0.3595,0.1184,0.6878,-0.0913,125.8247,64.9949,352.0001,up
-0.956,-0.013,0.1962,-0.0218,-0.7975,-0.0073,126.0466,58.5751,354.4109,up
-0.7521,0.0624,0.5995,0.1608,-2.2936,0.2114,129.9094,32.3091,1.2932,up
-0.4043,0.0954,0.85,-0.0023,-1.1045,0.1555,131.0536,12.1095,3.1288,up
-0.0546,0.1114,0.9446,-0.2304,-1.6427,0.0865,132.2793,350.3674,0.9932,up
0.0933,0.084,0.9533,0.035,0.1359,0.0112,132.9816,349.9264,1.0506,up
-0.1962,0.0592,1.0364,-0.381,2.2293,0.0143,131.6744,16.9382,356.2924,up
-0.6265,0.0117,0.7957,-0.016,1.55,0.0344,129.6261,39.4038,355.8514,up
-0.7287,0.0066,0.6346,-0.046,0.7327,0.1196,130.5262,49.2064,355.9526,up
-0.8718,-0.0005,0.4864,0.0105,0.8656,0.0338,128.752,60.0363,356.4789,up
-0.9042,-0.0007,0.2686,0.017,0.2413,0.0525,129.9735,65.6539,1.2958,up
-0.9516,0.0131,0.2403,0.1095,0.456,-0.0581,128.324,71.1007,1.4685,up
-0.9696,0.0216,0.2154,-0.0136,-0.6518,-0.0315,127.1763,67.1255,1.2489,up
-0.8481,0.034,0.5547,0.0148,-2.4472,0.1868,127.6098,37.9418,3.4118,up
-0.4386,0.033,0.8683,0.0362,-1.2734,-0.0447,127.3641,19.8708,1.5695,up
-0.2263,0.0597,0.9209,-0.21,-1.6274,0.0555,128.3919,2.5592,2.2655,up
-0.0022,0.0512,0.9416,-0.0979,-1.1088,0.1196,129.3965,349.4468,3.9918,up
0.1719,0.0211,0.9845,-0.0835,0.1432,0.0509,130.1122,346.6974,2.5243,up
-0.061,-0.0695,0.9599,-0.0008,2.3677,0.0396,130.9327,15.5992,357.1916,up
-0.5127,-0.0034,0.746,-0.137,2.036,0.2101,131.6855,40.6736,357.1818,up
-0.8296,-0.015,0.5427,0.0551,1.4019,0.0002,128.0037,59.5508,354.7616,up
-0.9308,-0.0157,0.2834,0.0625,0.8158,0.0833,128.7701,71.9567,357.4005,up
-0.9602,-0.0125,0.1869,-0.0069,0.4829,-0.0031,123.2834,78.7898,353.1867,up
-0.9619,-0.0002,0.0551,0.0845,0.0949,-0.0037,117.5636,82.0819,349.2284,up
-0.977,-0.0145,0.0819,-0.0108,-0.8727,-0.0755,119.3697,74.639,352.1913,up
-0.8953,-0.0072,0.4486,0.1261,-1.7435,0.0864,125.2839,53.1901,357.2299,up
-0.6119,0.0027,0.8079,0.2632,-1.5951,-0.0938,126.1937,32.7473,358.8303,up
-0.3999,0.0041,0.9253,0.1661,-1.1067,0.0061,127.755,20.7684,359.677,up
-0.2039,0.0354,0.9336,0.116,-0.5484,-0.0321,128.8486,11.6992,1.7436,up
-0.0491,0.0306,0.9636,-0.2185,-0.845,0.0278,130.6843,359.8822,0.6396,up
0.0582,0.0308,0.9658,-0.1042,-0.564,-0.0318,131.1423,353.5638,359.4903,up
0.1021,-0.0152,1.0004,-0.0208,1.1208,0.0046,131.4868,0.5468,359.4777,up
-0.1397,-0.0451,0.9787,-0.0248,1.892,-0.0779,132.0474,18.3461,359.5506,up
-0.5495,-0.0169,0.8639,0.2424,1.0707,0.2428,133.9126,32.4368,0.5693,up
-0.645,-0.0029,0.6843,0.0775,1.1284,0.044,134.2488,42.2827,1.8973,up
-0.7923,0.0622,0.607,0.1807,1.1956,-0.033,134.5154,52.9331,3.5407,up
-0.9256,-0.0104,0.3329,-0.0996,0.8487,-0.0119,133.8479,65.199,2.615,up
-0.9636,-0.0046,0.1774,0.0754,0.1834,0.0699,135.7789,69.4098,6.5691,up
-0.9577,-0.0104,0.3565,0.3057,-2.1702,0.0095,130.4556,47.878,6.3332,up
-0.5443,0.0381,0.7642,0.0439,-1.2677,0.0608,130.3563,28.5838,5.8636,up
-0.3846,0.0631,0.949,-0.129,-1.768,0.2153,132.0509,8.6987,4.5473,up
-0.0151,0.0379,0.9938,-0.3312,-0.9277,-0.0318,133.1,354.77,359.955,up
0.1641,0.0199,1.0091,-0.1503,-0.2069,-0.0248,133.1339,349.9832,358.9159,up
0.0916,0.1209,0.9672,-0.0667,0.0101,0.0468,133.7378,350.2377,0.9269,up
0.0827,0.009,0.9965,-0.0667,0.4444,-0.039,133.9813,352.4565,0.1956,up
-0.0982,-0.0615,0.9697,-0.151,1.0269,-0.0427,134.493,4.8402,358.6594,up
-0.3298,-0.0603,0.9892,0.1196,0.6662,0.0065,133.9165,15.6162,357.3586,up
-0.4771,0.0619,0.7974,-0.0563,1.1493,0.0661,133.6532,28.2544,357.4722,up
-0.7279,0.0189,0.7357,0.024,0.9496,-0.0689,132.6516,40.6679,356.9716,up
-0.8197,0.0612,0.513,0.1119,0.9933,-0.0164,130.8117,53.8597,358.4607,up
-0.9143,0.0007,0.3473,0.0035,0.5791,0.0056,129.1789,63.0403,358.078,up
-0.9476,-0.0096,0.2712,0.1119,0.1982,-0.0509,127.1905,67.6383,357.4343,up
-0.9279,-0.007,0.2727,-0.1312,-0.4887,0.0676,129.143,64.1726,358.0954,up
-0.9074,-0.0128,0.4109,0.0557,-0.941,-0.0115,129.5459,53.9534,359.081,up
-0.8118,-0.0159,0.5466,0.0628,-0.4749,0.005,129.6864,48.1198,359.4391,up
-0.7361,-0.0111,0.5917,0.1969,-0.8549,-0.0039,130.114,40.0003,3.22,up
-0.5578,0.0359,0.7711,-0.078,-1.6359,0.1247,130.4091,19.4744,4.7445,up
-0.2804,0.0185,0.9134,-0.0227,-0.5757,0.0203,130.465,10.1923,4.7013,up
-0.1308,0.0634,0.975,-0.0182,-0.7675,0.1058,131.4168,0.3595,4.9198,up
-0.036,0.0571,0.9251,-0.4229,-0.431,0.3123,132.6708,354.89,2.9529,up
0.0834,0.0238,1.0111,-0.0224,-0.3625,-0.0937,132.4833,349.3466,1.6967,up
0.0449,0.0503,0.9317,-0.2222,1.1298,-0.0036,132.8662,356.3969,1.0336,up
-0.2834,0.001,0.9239,0.1721,1.1912,0.0502,132.8049,12.8634,3.4967,up
-0.4959,0.0337,0.8269,0.0545,1.1478,0.0548,134.9281,27.9008,4.1646,up
-0.6484,0.0549,0.7092,-0.0289,0.8461,-0.0329,135.0315,36.1826,5.3231,up
-0.7669,0.0391,0.5912,-0.1162,1.2614,0.0398,136.8091,52.4967,3.7743,up
-0.8926,0.0452,0.3107,0.0707,0.9615,-0.1328,138.6065,65.6968,7.0401,up
-0.9498,0.0301,0.1421,0.0276,0.4805,0.0453,141.2622,72.1926,11.6993,up
-1.0007,0.033,0.0699,-0.0232,-0.1536,0.0062,140.2461,72.7223,12.524,up
-0.9661,0.0219,0.2252,0.0107,-1.59,0.0099,132.5548,57.4866,6.4896,up
-0.7358,0.0478,0.5447,-0.0235,-1.4642,0.0007,130.5993,37.54,2.7307,up
-0.5576,0.0061,0.8327,0.0339,-1.7339,0.1538,132.2138,19.016,4.1738,up
-0.2147,0.024,0.88,-0.0727,-1.2293,0.1373,131.0221,358.5377,5.1561,up
0.0085,0.0053,0.9655,-0.0733,-0.2864,-0.0707,131.4089,352.9009,4.992,up
0.0267,0.0073,0.9546,0.0971,0.3736,-0.1159,132.8727,356.8326,4.7196,up
-0.0015,0.0002,0.9714,-0.0593,-0.0556,0.05,132.8677,356.3179,3.8766,up
-0.0807,-0.0094,0.9658,0.0119,1.5174,-0.1152,133.041,13.7588,2.5107,up
-0.4342,-0.0118,0.9012,-0.1509,1.3784,0.251,135.2501,31.6093,4.1005,up
-0.6628,0.0007,0.6955,0.244,1.1793,0.0103,139.2362,47.604,9.2413,up
-0.8197,0.0238,0.5607,0.0504,0.7574,0.0048,141.9676,57.6466,12.4117,up
-0.9056,0.0253,0.4143,0.0152,0.7452,0.0189,145.8181,67.4105,15.5803,up
-0.9508,0.0197,0.213,0.1487,0.5354,-0.0911,149.6544,75.7482,22.6203,up
-0.9577,0.0209,0.1567,0.1778,0.0353,0.0196,155.309,78.7258,29.6729,up
-0.9644,0.0126,0.3558,0.0621,-1.4576,-0.003,136.9862,64.5951,10.8751,up
-0.7491,0.0345,0.6287,-0.0238,-1.6571,0.0673,133.1651,43.5638,5.5047,up
-0.5638,0.0296,0.8585,0.3351,-1.1284,0.0193,131.9912,30.5535,7.8407,up
-0.3414,0.0345,0.9304,0.1348,-1.256,0.0633,131.1083,15.3104,8.325,up
-0.0874,0.0546,0.9475,0.052,-1.1464,0.0511,130.4683,0.5883,8.1082,up
0.1059,0.0376,0.9855,-0.0783,-0.0433,-0.0149,131.7147,356.3406,4.9812,up
-0.0397,0.0172,1.0004,-0.1055,1.4289,-0.0751,133.5161,11.7516,3.7983,up
-0.4144,0.0534,0.946,-0.709,1.1158,0.1201,132.9429,23.9658,357.6624,up
-0.6312,0.0328,0.7742,0.0286,1.0944,0.0929,133.2729,36.5734,1.1522,up
-0.7405,0.0068,0.6329,-0.0444,0.9316,-0.0296,132.602,48.6585,0.467,up
-0.8629,0.0202,0.4967,-0.0044,0.8293,-0.072,132.28,59.3733,0.9597,up
-0.9353,0.0204,0.3324,0.0472,0.5425,-0.0546,130.2387,68.2865,359.4391,up
-0.9437,0.0187,0.2342,0.062,0.0119,-0.0167,128.792,70.4679,359.2049,up
-0.9012,0.0209,0.3758,-0.0699,-0.7462,-0.0124,129.7084,61.5244,357.7219,up
-0.8178,0.0291,0.5481,-0.0247,-1.7703,0.0771,130.8974,40.0685,0.2417,up
-0.5453,0.0236,0.8054,0.3103,-1.8674,0.0267,131.3273,22.4443,1.7575,up
-0.25,0.035,0.9594,0.0248,-1.3555,0.0202,132.3542,5.5928,1.9363,up
-0.0101,0.0204,0.9719,-0.073,-1.2407,0.0377,133.812,353.7241,0.3587,up
0.0866,0.0391,0.997,-0.1942,-0.3271,-0.0518,133.7145,348.9415,0.3544,up
0.057,0.0138,0.9568,-0.2132,1.0937,-0.0628,134.0012,359.7237,358.2163,up
-0.2831,-0.0285,0.9994,0.0449,0.595,-0.1401,132.0795,13.3363,358.7085,up
-0.3656,-0.0002,0.8863,-0.0043,0.9242,0.1381,134.0304,24.4801,0.9317,up
-0.4944,0.0175,0.7991,0.0938,0.8689,0.0758,134.6042,31.1918,2.7716,up
-0.6788,0.0126,0.6802,-0.0125,1.04,-0.083,135.0442,45.9028,3.1227,up
-0.8494,0.0318,0.4767,0.0635,1.0583,-0.0808,134.6235,59.7912,5.0122,up
-0.9197,0.0155,0.2722,-0.0009,0.6933,0.0642,138.1449,70.1613,8.9511,up
-0.9785,0.0359,0.212,-0.0033,-0.1483,-0.0107,137.2772,70.2975,9.7835,up
-0.8787,0.0352,0.4313,-0.0763,-1.8361,0.1218,133.4967,49.922,5.77,up
-0.625,0.069,0.7669,0.3116,-2.7668,0.1774,131.5186,20.4107,8.0938,up
-0.2261,0.0216,0.9073,0.0562,-1.0732,-0.0956,128.9282,4.6748,9.8891,up
-0.0489,0.1486,0.9614,-0.113,-1.006,0.0834,127.6327,351.8885,8.9201,up
0.1525,0.0386,1.0028,0.0829,-0.0864,0.0206,129.4775,349.3966,7.5796,up
0.033,0.0226,0.9801,0.0038,1.6436,0.1079,132.6946,8.0994,4.1485,up
-0.3651,-0.0564,0.9285,-0.0625,1.6155,0.0071,133.9116,29.1319,1.7623,up
-0.6786,0.0233,0.6897,0.2103,1.1741,0.2249,136.4478,45.5741,5.9527,up
-0.7516,0.0274,0.5398,-0.17,1.2324,-0.1279,137.0761,60.5584,3.1774,up
-0.9355,0.0486,0.3863,0.0093,0.7047,-0.0912,133.1654,68.2879,0.7632,up
-0.933,0.024,0.2917,-0.0887,0.7694,-0.1022,131.8705,75.1838,359.8121,up
-0.9535,0.0148,0.2201,-0.1078,0.0648,0.0902,134.9795,75.7033,3.058,up
-0.9831,0.0347,0.163,0.067,-0.1921,-0.0012,134.5705,75.5855,4.8312,up
-0.9592,0.0481,0.2276,-0.1139,-0.6579,-0.0729,129.9722,68.9082,2.0701,up
-0.897,0.0289,0.4016,0.252,-1.4612,-0.0216,126.9774,53.8434,1.6544,up
-0.6591,0.0153,0.7021,0.1238,-1.3745,-0.0809,126.675,35.0695,1.7513,up
-0.4749,0.0333,0.8953,0.3971,-1.4908,0.0001,126.6058,19.3189,3.2074,up
-0.1886,0.0738,0.9046,-0.0033,-1.1765,0.0352,126.212,3.5875,4.2243,up
-0.0052,0.0639,0.9716,0.1106,-0.3122,-0.1178,125.9213,358.6857,4.4201,up
0.072,0.0466,0.995,0.1821,0.3344,-0.0455,126.42,0.3597,6.1473,up
-0.133,-0.0077,0.9843,-0.1188,1.9648,-0.0283,130.4979,23.0129,2.7395,up
-0.5613,0.0056,0.7774,-0.2192,1.6612,-0.003,130.5486,43.3497,359.3083,up
-0.8763,0.0039,0.4952,-0.0845,1.1683,-0.1035,124.9461,60.9417,355.2801,up
-0.9493,-0.0002,0.2717,0.0089,0.6225,0.1198,125.6276,70.1704,357.2514,up
-0.9508,0.0117,0.2325,0.0486,-0.5577,-0.0461,122.7999,66.3438,355.3274,up
-0.8254,0.0085,0.4672,0.1705,-2.0128,0.0944,125.5496,42.5503,2.6604,up
-0.5342,0.0274,0.801,0.0025,-1.4994,-0.0607,125.4434,23.6206,0.8235,up
-0.3216,0.0903,0.8902,-0.01,-1.467,0.0498,125.2252,4.7633,4.9008,up
0.0458,0.0845,0.9414,0.2691,-1.0376,0.0001,126.1906,350.5455,7.2753,up
0.1547,0.1289,0.9714,-0.2534,0.9264,0.0938,128.1058,354.237,6.0726,up
-0.0891,0.0253,1.0555,0.1244,1.46,-0.1029,130.9767,10.5728,3.3757,up
-0.4354,0.0354,0.8851,-0.0232,1.3961,-0.0623,131.2331,23.2194,4.6998,up
-0.7082,0.0388,0.7976,-0.2592,1.4743,0.1213,133.5354,43.9685,1.2058,up
-0.8496,0.0245,0.3826,0.012,1.5046,-0.0739,130.4755,64.3219,1.2868,up
-1.0083,0.0085,0.1296,0.0367,0.7486,-0.0784,126.8711,77.9194,359.7584,up
-0.9604,-0.0157,0.1053,0.0834,-0.715,-0.0229,124.3879,73.0586,359.9914,up
-0.8698,-0.014,0.4533,0.2511,-2.558,0.0468,124.8915,45.0755,1.7478,up
-0.3833,0.0461,0.917,0.1235,-2.3674,0.1867,126.9111,12.2215,5.2742,up
0.0507,0.0952,0.9536,0.0126,-0.7923,0.0975,128.8405,356.3829,5.3432,up
-0.0012,0.1275,0.9838,-0.1847,0.6038,-0.0366,128.7669,2.4948,5.7511,up
0.0022,0.0779,1.0428,0.1549,-0.7419,-0.0351,128.566,357.8211,4.8609,up
0.0218,0.1049,0.9499,0.1073,0.7449,-0.0323,129.2644,3.8202,5.8108,up
-0.1886,0.0901,0.9982,-0.226,2.1014,-0.211,129.9087,21.2439,2.06,up
-0.6156,0.0269,0.7284,-0.138,1.4248,-0.1197,128.1322,39.6956,0.0413,up
-0.7719,0.0017,0.6261,-0.1172,1.1386,-0.0558,126.5916,50.7278,358.6271,up
-0.8607,-0.0191,0.4365,-0.1099,1.1368,-0.065,124.028,60.6711,357.1455,up
-0.936,-0.0087,0.2749,-0.1417,1.2465,0.0401,121.1998,71.7773,354.397,up
-0.9839,-0.0384,0.0502,0.0392,0.3745,0.0062,116.2904,79.3361,350.9945,up
-0.9395,-0.0253,0.2071,0.1045,-0.7917,-0.0225,121.4114,67.7609,354.6666,up
-0.9118,-0.0234,0.3975,0.1726,-1.4807,0.0905,123.6081,52.5734,359.2894,up
