acc_x,acc_y,acc_z,gy_x,gy_y,gy_z,pitch,roll,yaw,direction
0.171894163,-0.10396836,0.951392472,-0.192611992,-0.060290392,0.010645438,169.3956719,349.8307695,353.58021,up
0.105221525,-0.123990111,0.99842602,0.051543746,0.067784004,-0.03409588,169.4223369,349.7259424,353.8449409,up
0.105948865,-0.097214036,1.000619292,0.462350607,0.907418311,0.085939139,170.054266,357.686759,357.3460132,up
-0.020487361,-0.040284727,0.992820978,-0.051997907,0.696975231,0.099378176,170.4807157,2.668397387,357.5538062,up
-0.213512838,-0.025328718,0.962115169,0.044518802,0.968504846,0.067613184,170.6393674,11.92669362,358.8303162,up
-0.374202818,-0.007960455,0.892417848,-0.069713004,0.537844837,0.032793868,170.6026756,20.07885566,358.233526,up
-0.500335872,-0.023157686,0.837586105,-0.027868733,0.855494738,0.03340473,170.20494,29.74819225,357.5811487,up
-0.645228386,-0.00410084,0.724998116,-0.074294493,0.551894724,0.022714589,170.4463189,35.38478879,357.0400722,up
-0.634367585,-0.053552151,0.698922515,-0.01899197,-0.078399792,-0.022111464,169.8689357,36.68036981,355.2475697,up
-0.464051038,-0.093595646,0.818821371,0.094323538,-0.588472247,-0.079532795,169.2427986,31.1813845,355.0233782,up
-0.206601441,0.022094125,0.937014401,0.019730944,1.231880784,-0.265589118,176.655398,13.46477709,1.296097657,up
-0.457633287,0.020151785,0.872434676,-0.101831242,1.011052966,-0.112567365,175.2472452,26.80832686,1.244617028,up
-0.532918155,-0.015920909,0.774955988,0.071043625,0.656751037,-0.00566595,175.0987432,33.96897937,0.700205381,up
-0.722981572,0.019423407,0.658956289,-0.039217554,0.477156729,0.034651157,176.2246453,41.14770967,0.118380759,up
-0.791848779,0.002427926,0.592914462,-0.0761749,0.336657703,-0.046593919,175.6985158,46.81022678,359.2510434,up
-0.803696871,-0.003618388,0.553922951,-0.027192991,-0.078592159,0.034964889,175.9003479,46.07857008,358.8695327,up
-0.812336087,0.007769363,0.572200179,-0.047656976,-0.155561179,-0.02337274,176.2502312,44.4384231,358.8099595,up
-0.782222152,0.003641889,0.579998493,-0.015954759,-0.08194565,0.001509878,175.0153056,43.58947498,357.9547464,up
-0.770867765,-0.000241226,0.597057283,0.001669053,-0.04043426,0.011569493,175.0325997,43.82631521,358.2526936,up
-0.762722194,0.001456755,0.615821958,-0.001131892,-0.01652284,0.003338772,175.1537262,44.54412369,358.3655526,up
0.154922932,0.047587346,0.985510051,-0.085021511,0.059771441,0.039947279,193.0608603,44.31751851,12.67499036,up
0.141588405,0.039332394,0.99501425,-0.020206589,-0.042593405,0.008476555,192.276659,40.64777398,11.51642209,up
0.030063294,0.021365747,0.972350419,-0.136881858,1.20082283,0.057040341,195.1233315,51.44908977,12.5897146,up
-0.207095116,0.032534208,0.960409284,-0.039448842,0.808341861,-0.042836126,195.8793925,59.26914411,12.96157229,up
-0.348531932,0.005098644,0.906552255,0.015834458,0.73412174,-0.022677572,196.4708732,65.94004644,11.63689638,up
-0.492683947,0.007769363,0.846602857,-0.032423891,0.440600991,-0.080098905,197.0040241,69.64811516,11.77434881,up
-0.589443564,0.005827022,0.785922348,0.025608309,0.423496783,0.007254825,197.6906084,73.4333855,13.38150342,up
-0.641525865,0.010925665,0.736451864,0.043017969,0.409141421,-0.013820026,197.1052885,75.99940561,13.69905514,up
-0.717304409,0.028892318,0.678452075,0.0483068,0.109909624,0.038176008,195.3070773,74.22517518,13.1288607,up
-0.705456316,0.031805828,0.678939462,0.038682438,0.026147334,0.018730469,193.2184464,72.77646474,11.92619929,up
0.077582695,0.055842295,0.967963934,0.012415238,0.525224209,-0.082673155,11.82387793,17.62339412,176.2298772,up
-0.046898775,0.057299048,1.009879708,-0.316841125,0.929922462,0.039805319,12.69788004,14.0969905,175.2932807,up
-0.205614105,0.033990961,0.95261097,-0.07768739,0.725282609,-0.002649814,12.83841032,15.21297938,176.0640129,up
-0.311506599,0.018937821,0.923611045,-0.167790011,0.586921632,0.001931675,12.89880115,17.77233664,177.0221655,up
-0.441835791,-0.014956006,0.856838107,-0.039813742,0.470551819,-0.021281205,13.73398814,19.40047615,178.1047914,up
-0.539829552,-0.032565497,0.820771039,-0.044395234,0.516977549,0.044386808,13.4213072,20.86360171,179.2489574,up
-0.647943616,-0.006271873,0.744006515,-0.079985306,0.098680608,0.056253385,11.60761109,22.23505759,178.591702,up
-0.632639766,-0.014473554,0.754972875,-0.026682302,0.036817987,0.00157872,11.38592022,27.93792233,180.0628191,up
-0.643994212,-0.006995551,0.735964477,-0.000454146,-0.11121881,-0.008584312,11.36904112,34.4786071,181.2611211,up
-0.627703071,-0.003618388,0.744981229,-0.001317706,-0.067545742,-0.000701436,11.48714277,41.22553285,182.5420275,up
0.172621489,0.052200403,0.999157071,0.011404391,0.088900484,-0.012427581,13.9902816,48.00245337,180.651677,up
0.146679774,0.062397692,1.003543615,-0.078087367,0.637762904,-0.023423156,14.80332854,48.6414005,182.5284491,up
-0.042208895,0.032534208,0.992089868,-0.055790782,1.087054253,-0.089396596,16.78024654,43.84850649,184.6439636,up
-0.311012894,0.00752657,0.92531693,-0.041130017,1.200369716,-0.004486334,17.15531784,34.98286631,185.7425995,up
-0.508481443,0.00097117,0.824426413,-0.006005265,0.814913869,-0.041443679,16.95275833,30.20399126,187.3963659,up
-0.614373982,-0.007719229,0.753023267,0.003463145,0.632570505,-0.075041264,17.07638476,29.74293984,188.8775607,up
-0.688918293,-0.034736529,0.62825048,0.055356722,0.098817736,0.014808223,17.18708846,32.36053129,188.9458489,up
-0.68595624,-0.00940781,0.704283893,-0.003205057,-0.073933154,0.000410905,17.77542388,37.84470191,190.9285299,up
-0.667443573,-0.015920909,0.712082207,-0.023675814,-0.121124357,0.006746886,18.68878239,44.2561595,192.7586927,up
-0.621285319,-0.020262975,0.762040019,0.208453,-1.238702416,0.150911093,23.98042022,63.58699163,197.2725052,up
0.137951732,0.001699548,0.974056304,0.088587441,0.193576813,-0.039684463,15.67443549,33.92047136,206.654535,up
0.048246738,0.015538725,0.940913498,-0.01128903,0.756794572,-0.046403982,12.97446001,33.05367937,206.2633154,up
-0.117740609,0.009954495,0.954316854,0.035442159,0.604383707,-0.073587485,12.97369417,32.75326375,206.918194,up
-0.25226602,0.01505314,0.952367306,0.010702118,0.834679902,-0.017693318,10.21868358,30.8148185,206.3718335,up
-0.387038291,0.039817981,0.929216087,0.027195483,0.787032366,0.038200855,6.766515158,30.65691818,205.336691,up
-0.529215634,0.030591864,0.812972665,-0.12888059,0.605910838,0.036979124,4.157058461,31.43391026,202.1681936,up
-0.638316989,-0.000964904,0.714275479,-0.171335727,0.478545457,0.078212529,1.435081868,32.2725926,199.6449578,up
-0.669171453,0.001942341,0.690636873,-0.034442216,-0.030227106,0.00623026,2.714759644,39.00823488,199.5506875,up
-0.680525899,0.003641889,0.707939327,-0.025486358,-0.071598113,-0.002162591,4.224918952,44.88920192,200.3454346,up
-0.66176641,0.008012155,0.71841836,-0.009464115,-0.071866632,-0.003300808,4.742193937,50.91078549,200.4485705,up
0.087038085,0.011896837,0.987947047,0.010840155,0.056238074,-0.015437448,2.579065984,49.64829674,203.8960675,up
0.071521543,0.00752657,0.985753715,0.022773217,0.07617674,-0.01958701,5.852474484,56.31334559,206.6551634,up
0.045579832,0.022822501,0.985022664,0.055077981,0.111354612,-0.027134353,9.662145256,62.09890514,210.4504673,up
0.017940998,0.03034907,0.98136723,-0.024411064,0.164158583,-0.02330186,13.90874707,66.82446714,214.4434915,up
-0.033569649,0.025736013,0.978442848,0.00796479,0.272281736,-0.03246484,16.24240329,69.47239488,216.5166998,up
-0.109101355,0.037632849,0.988434374,-0.051289134,0.374601662,0.014266353,15.03785162,71.06287956,214.8781647,up
-0.200924218,0.037147261,0.967963934,-0.021356739,0.34375295,0.002965346,15.08559464,72.91545226,215.2798345,up
-0.294721782,0.0293779,0.931409299,0.005521335,0.433244705,0.005103374,10.30922542,73.12374571,210.4974727,up
-0.372474968,0.02743556,0.909476638,-0.020440441,0.365133226,0.005714239,8.468062557,74.20890567,207.9487602,up
-0.439367473,0.03107745,0.88437587,0.031483106,0.427746922,0.035646636,5.923639079,74.92360301,205.3783961,up
0.066430181,0.05487112,0.982098341,0.021916848,-0.005031619,-0.003674465,114.7434215,83.32024142,311.7017926,up
0.066430181,0.046858966,1.014266253,-0.012902472,0.69501996,-0.009172253,116.3951524,83.79448878,312.9376573,up
-0.166120395,0.050015271,0.973325253,-0.031228429,0.848347127,-0.100802042,48.92696729,84.68916842,244.9002066,up
-0.319405317,0.025493219,0.922148883,-0.115833268,0.658673465,0.039696965,11.71342182,81.30539026,206.3568207,up
-0.447266191,0.020151785,0.869022906,-0.057495635,0.410051286,0.017705819,4.572271637,80.16233078,198.5808689,up
-0.500089049,0.020394577,0.840997815,0.023138579,0.611331403,0.154539645,346.1916251,80.20083939,179.714066,up
-0.625975251,0.02646439,0.723535955,-0.051386982,0.388671041,0.10078349,335.6058547,77.62928682,167.5318635,up
-0.718785465,0.053414367,0.666023493,-0.049633827,0.012740189,0.007644882,327.953111,79.59944806,160.2919996,up
-0.691633463,0.048558515,0.689418375,-0.033973679,-0.093004145,-0.005881711,315.8164386,83.27920564,147.7228259,up
-0.692620873,0.046373382,0.701603234,-0.028963193,-0.06660381,-0.001521512,290.8213784,85.75019733,122.5562699,up
0.072248884,0.02743556,0.999644458,0.072442114,0.185519591,-0.028569076,334.0517084,73.91334973,185.0438711,up
-0.000493671,0.044431042,0.996963799,0.034873907,0.349536926,-0.152269289,332.8285786,76.04356278,183.3668275,up
-0.083677284,0.047344554,0.977711737,0.041287992,0.369084626,-0.063999258,331.812856,77.43355409,181.8497332,up
-0.228322968,0.058027428,0.960652947,-0.028045217,0.950628281,0.078943208,325.5253817,70.4100091,174.5702642,up
-0.387038291,0.051229235,0.900947213,-0.02285286,0.515997708,-0.01024312,322.0189197,68.8172363,168.9794538,up
-0.515146017,0.056085087,0.823939025,-0.021020267,0.55356586,0.067336768,321.8913113,64.78836043,167.3889623,up
-0.590924561,0.05754184,0.782997966,-0.038254321,0.156117097,0.038310211,319.5750609,66.03392056,163.8742699,up
-0.633627057,0.057784636,0.748636723,0.010004032,0.29753238,0.008377814,319.0750809,66.98158198,162.206406,up
-0.69138664,0.05827022,0.696972966,0.018861581,0.211705834,-0.022165449,321.7538981,66.40036021,165.3799304,up
-0.687930942,0.062640481,0.704527617,-0.002813283,-0.001055544,-0.006600952,318.1683391,70.07022085,160.8699429,up
-0.130329221,0.110713415,1.001593947,-0.039159764,0.624775887,-0.060357094,357.2744489,335.2513594,179.7119623,up
-0.244614124,0.083277851,0.944325268,-0.032745682,0.418608874,-0.069214635,0.048792787,319.3052275,178.0400959,up
-0.32236734,0.091775589,0.924098432,-0.044962984,0.299795598,-0.032562725,3.541494066,305.9764378,175.0806022,up
-0.380620569,0.069924265,0.905090094,-0.101468019,0.370655954,0.03554875,7.533542414,293.4292471,170.1205462,up
-0.450968742,0.082063891,0.857325554,0.029562578,0.289716303,-0.012098739,18.63444311,282.8245997,158.8535754,up
-0.494411796,0.0883765,0.856838107,-0.059929181,0.384400427,-0.019123688,82.73727794,275.1844048,94.66416793,up
-0.568215668,0.076236866,0.792502105,0.010931186,0.383484125,-0.038976811,151.2713961,282.5350885,26.28832236,up
-0.682253778,0.086676955,0.705502391,0.024675652,0.575906634,0.104576528,166.0012591,296.145627,12.58977863,up
-0.737298131,0.090561636,0.63507396,-0.096581101,-0.182482526,0.036159616,167.3681712,301.0563007,10.36435188,up
-0.734336078,0.094446316,0.64945209,-0.043085087,-0.039780356,0.001394468,168.09769,307.115061,9.58012066,up
0.012849634,0.068710297,0.98063612,0.038159989,0.242439389,-0.054499701,173.1690372,15.54351443,21.32613699,up
-0.038259525,0.069438681,0.979417682,0.054347917,0.245188296,-0.040755235,173.3680416,17.49467408,20.67540097,up
-0.096019067,0.077936418,0.979905009,0.014030814,0.315743208,-0.045031291,173.8013078,20.54631722,20.26497148,up
-0.143905178,0.081092723,0.979661286,0.034494795,0.425698966,-0.023651006,174.4895723,22.99122442,19.52003178,up
-0.234000191,0.08959046,0.951148808,0.079698831,0.590327144,-0.046253022,175.6031254,27.26831961,19.6746758,up
-0.320639491,0.084977403,0.916056454,-0.011320096,0.600406408,0.023996482,176.9533718,32.15099133,19.60325422,up
-0.429987699,0.089347668,0.884132147,-0.133493155,0.670350492,-0.017542355,178.8209778,38.05070724,18.96652349,up
-0.509221971,0.071138225,0.837586105,0.067481518,0.257405579,0.00628139,179.4639171,40.65451537,19.95402541,up
-0.581544757,0.074051738,0.78056103,0.018917732,0.523437381,0.090275355,184.0845028,45.18048217,22.86869765,up
-0.670158744,0.090318836,0.706964552,0.026553549,0.499613643,0.152278185,188.360488,50.07997835,26.8076575,up
0.015274093,0.008012155,0.982585669,0.036938258,0.257100165,0.029799702,290.6688125,63.2756033,121.3771061,up
-0.051341813,0.009226118,0.992089868,-0.032700378,0.516412437,0.024301914,290.6909764,64.20399676,120.1096962,up
-0.138227969,0.014810347,0.970888257,0.002118941,0.303220481,-0.008379376,288.1206669,66.09438822,116.7950327,up
-0.214253336,0.003399096,0.954316854,0.001813509,0.331014842,0.001699901,286.5140699,67.70560253,114.6022278,up
-0.323354691,0.001456755,0.918006003,0.019834034,0.34964624,0.020025859,287.3437329,68.83129966,114.6001787,up
-0.398392737,0.003641889,0.900459826,-0.059883881,0.369193912,0.075614594,290.0439389,69.0630753,116.4728117,up
-0.465532005,0.00946891,0.867073357,0.00089721,0.473346442,0.141893476,291.8200613,68.67706033,117.9891683,up
-0.5531587,0.042488702,0.802737415,0.036327392,0.400958925,0.239326477,290.902603,66.57050705,117.3055757,up
-0.658310711,0.054142743,0.744493842,-0.17809625,0.145271987,0.052121617,292.5377639,66.22132729,116.971115,up
-0.682500541,0.052443195,0.720367908,-0.013832327,-0.036761381,0.043236591,284.8307971,67.92533654,109.2871248,up
0.078067586,-0.060547702,0.99842602,0.03381516,0.463231832,-0.073438667,10.08374807,21.0531719,175.4387637,up
0.006788486,0.001942341,0.982098341,0.108340718,0.545393229,-0.078936458,10.60554464,25.11895812,176.7327157,up
-0.099227928,0.032534208,0.976980627,0.117198266,0.530427039,-0.099095009,11.48337592,27.50547232,179.8872522,up
-0.237702727,0.053899955,0.951148808,0.107424431,0.442767859,-0.113144912,12.83348661,28.76953201,183.0509585,up
-0.326069891,0.060455348,0.93214041,0.060998663,0.364271671,-0.092680924,13.85513606,32.6444725,185.4190398,up
-0.44356364,0.063611656,0.886081696,0.033204295,0.322121978,-0.156516343,15.09234116,33.6044146,187.81813,up
-0.448500365,0.054142743,0.856107056,0.071994238,0.497745723,-0.066413715,15.29887584,34.05128314,189.9846114,up
-0.540076435,0.070409842,0.800056756,0.140716583,0.656876147,0.042931158,13.71883451,33.09850591,191.7445872,up
-0.666703045,0.096145861,0.700141072,0.21768561,0.577158213,-0.041062813,12.77806048,31.90901139,194.9672344,up
-0.732855022,0.114355303,0.641653836,-0.032739323,-0.038420476,0.017713487,12.41996647,37.29083504,195.4929677,up
0.264266074,0.024764843,0.96284622,-0.007091682,0.013570322,-0.008768272,28.00177094,57.05865925,206.3725165,up
0.276145875,0.026707184,0.956997514,-0.000896886,-0.121327385,-0.023608662,38.53630979,65.23137333,216.9821089,up
0.298693359,0.019908991,0.950661421,-0.005689722,-0.019361563,-0.001297163,51.68968319,70.85119834,230.3333529,up
0.224262461,0.044431042,0.959678233,0.399924785,1.752147555,0.018250525,31.98323164,64.39663542,216.3703562,up
-0.184633061,0.127951682,0.974543691,0.013247102,1.450074792,-0.191581681,20.37611403,53.25199675,208.7833411,up
-0.462323189,0.090561636,0.849283516,0.094797619,1.196871161,-0.00557322,11.10119013,43.50050152,201.5985421,up
-0.609930873,0.101972878,0.758871973,0.11098554,0.454669863,0.032911293,8.91328673,43.96402206,201.3081225,up
-0.643253684,0.123338632,0.731334269,0.027898654,0.018747421,0.026692457,9.786400057,49.50103444,202.0981431,up
-0.643253684,0.132564738,0.73206532,0.009687044,-0.020580858,0.005963217,11.16755651,55.0753499,203.2604638,up
-0.628690422,0.127951682,0.730846822,-0.033135034,-0.068685412,0.011042066,13.4122905,60.78842407,205.3068567,up
0.295784026,0.049044099,0.947737038,-0.00431921,-0.035817377,-0.031095583,33.89626176,69.94747552,220.0378399,up
0.32221064,0.075022906,1.014266253,-0.017452812,0.490137607,0.011970415,43.57811296,73.44618528,230.8710937,up
0.083401397,0.07550849,0.994039416,0.152978599,1.425677776,-0.266278684,27.1466415,65.15087955,218.5646637,up
-0.250785023,0.080364339,0.909232914,-0.149705142,0.940650702,-0.083324559,17.63903183,58.99280148,208.9528937,up
-0.413202882,0.0883765,0.870972574,0.151145995,0.812979877,-0.002690351,10.9076405,54.45005633,205.1431371,up
-0.559329629,0.091775589,0.782266855,-0.044025451,0.700275242,-0.095847301,8.117912055,51.81845957,202.9148425,up
-0.673861325,0.093475141,0.701846898,0.218035758,0.671564579,0.051676657,3.952469536,48.53444656,201.1194453,up
-0.743715823,0.111441791,0.596813619,-0.039890673,-0.018233258,0.030772921,3.579542702,52.12308259,199.4681242,up
-0.710886657,0.098573789,0.64530921,-0.060354661,-0.672469974,0.024664268,9.741667441,63.90508037,203.6787719,up
-0.490462452,0.080364339,0.82905668,-0.17947337,-1.173379421,0.23602365,38.30933236,82.18397115,229.2108249,up
0.139648855,0.01044008,0.98136723,-0.019510999,-0.082987309,-0.016642705,143.6646554,74.28204334,330.0865718,up
0.166802794,0.017238274,1.005736828,0.003709096,0.141026542,-0.033339486,151.6420431,69.93775616,337.9944641,up
-0.171550781,0.042731494,0.953585804,-0.067762136,1.532883048,-0.168340698,104.2100267,80.81474362,295.1333519,up
-0.407031983,0.055113915,0.884619534,-0.080284879,1.140402079,-0.048916548,34.6775671,78.96584556,226.3300151,up
-0.579570115,0.048801307,0.777880371,0.146651566,0.917130828,-0.100840099,16.95099614,72.82546452,211.3115766,up
-0.696570218,0.050986439,0.667973042,0.045247935,0.597648323,0.018278629,10.8298472,69.96984439,205.5310782,up
-0.796538591,0.073566154,0.533939838,0.12130066,0.269919097,0.031717665,5.599255039,68.47806277,202.5166015,up
-0.801228464,0.083277851,0.536133051,0.038915612,0.012730945,0.015558493,6.274760748,71.59462345,203.1062381,up
-0.794810772,0.083277851,0.621670663,0.001024455,0.025429852,0.011993714,7.265316616,76.10170819,203.7237008,up
-0.800241172,0.084006228,0.567569971,0.00459164,0.000114731,-0.016387466,10.25256644,78.92303393,206.4166669,up
0.145467564,0.050500855,0.990627706,0.064796232,-0.047836043,-0.025203528,113.4865505,71.56492578,314.5851433,up
0.131648123,0.069195889,0.982585669,0.044735331,-0.021662787,-0.030134957,125.5313091,68.49638817,326.5874796,up
0.067884855,0.072594978,0.984535277,0.013581205,0.974352956,-0.069230333,117.4712351,73.73495885,318.9414516,up
-0.192284971,0.085705779,0.95675385,0.251818657,1.131650805,-0.111990899,86.8790022,78.79385457,291.3231104,up
-0.36901927,0.13450709,0.89802289,0.123536944,0.84882015,-0.14619936,59.35850347,80.19756772,265.8246072,up
-0.531930864,0.126009345,0.804686964,0.100324064,0.741613328,-0.079309613,29.57242416,79.09796874,237.0118982,up
-0.664728403,0.135963842,0.687956154,0.089328483,0.710459173,-0.079615042,5.943074809,75.72551503,213.7023067,up
-0.800734818,0.167284086,0.570738018,-0.034066286,0.620967448,0.04652863,351.4168684,72.2987818,198.8488309,up
-0.862443745,0.184036762,0.443284571,0.093299106,0.537584305,0.08715117,342.1277787,68.67781165,190.0205382,up
-0.884658992,0.198118746,0.371150285,-0.054214396,0.188910812,0.088689439,335.3694055,68.08993044,183.1816064,up
0.062551044,0.095174693,0.988921821,0.016035106,0.422566742,-0.057918221,340.4766334,356.1776255,189.0195603,up
-0.022462046,0.091290005,0.988434374,0.032223035,0.503811836,-0.022488035,339.2716873,340.6745928,190.8226756,up
-0.114778578,0.096388653,0.981123507,0.05024356,0.442419857,-0.035316207,337.5670872,326.8783773,193.1714821,up
-0.223633096,0.097602613,0.956266463,0.041691449,0.668440044,-0.083574563,334.4026367,310.1084802,197.208479,up
-0.403576285,0.102701262,0.885594368,0.107359469,0.918283939,-0.075327881,324.3756867,291.5088369,208.1363309,up
-0.585247338,0.131108001,0.770813107,0.047800098,0.651946664,-0.096402735,265.4507978,278.3914313,267.1898528,up
-0.691633463,0.125280961,0.683082283,0.068569511,0.649503231,-0.024931498,197.987025,287.4150606,335.5036,up
-0.811842442,0.126494929,0.541250706,0.06734778,0.716698408,-0.000191455,184.863759,303.2974771,349.5576866,up
-0.894779205,0.16267103,0.358965456,-0.017562483,0.55726254,0.086245976,181.8972849,319.4616593,353.6286779,up
-0.908848882,0.170925975,0.382847756,-0.089644581,-0.451275975,0.070668913,181.3016515,321.9985999,353.8843199,up
0.053095657,0.054142743,0.986728549,-0.027401783,-0.033523049,-0.002837297,180.6299433,321.7687845,350.8288344,up
0.065702841,0.05827022,1.060325027,0.067587763,0.26030314,-0.005586191,179.527916,324.8663197,352.0542249,up
-0.103917807,0.081821099,0.978442848,0.238324597,1.445992589,-0.104851797,176.2322678,341.9662157,355.0356422,up
-0.394937038,0.1403341,0.889493465,0.245960429,1.094439626,-0.044070702,175.1863472,359.3095407,359.3025459,up
-0.620051146,0.151502565,0.736451864,0.07369642,0.776484251,-0.109127849,174.2736017,13.27137175,1.964518646,up
-0.703728437,0.157572374,0.640922725,0.198312923,0.658281863,-0.044070702,174.1187477,23.1003401,3.825062603,up
-0.811348796,0.172382727,0.487393677,0.201672688,1.065729022,0.116586864,176.9159697,37.88595967,7.993989372,up
-0.872317195,0.198361546,0.418671191,-0.044029549,-0.098496988,0.015281184,177.520578,38.56526637,9.011555223,up
-0.879722238,0.205645308,0.39673847,-0.010853417,-0.099338606,0.004283165,177.5723236,39.22946471,9.510801924,up
-0.868367851,0.207830444,0.430368632,-0.00745308,-0.022308882,0.010130942,177.5620919,40.03145527,9.794387963,up
0.193714276,0.066039577,0.972106695,-0.003787369,-0.14073348,-0.026740801,175.6599252,348.6648204,3.791047407,up
0.146679774,0.066282369,0.976980627,0.157481059,0.633232832,-0.04048527,175.9035717,355.5162775,5.394211906,up
-0.034063317,0.095174693,0.992577255,0.101586893,1.030906081,-0.080191508,175.7751505,9.073909727,7.434503817,up
-0.175993815,0.103915222,0.967476487,0.093034774,0.558401823,-0.029795127,176.2752706,16.34609068,8.655977282,up
-0.296449631,0.11362692,0.927266538,0.079595745,0.474713266,-0.08874362,175.5774848,21.24182002,9.959755381,up
-0.466766208,0.111927383,0.847333908,-0.127182156,0.532745481,-0.082634971,175.9736358,29.36741603,8.697681564,up
-0.54772836,0.089347668,0.800056756,-0.04929683,0.470742643,0.017852362,176.5856481,35.19163445,8.389923485,up
-0.648190379,0.074780107,0.724998116,-0.04563164,0.641784906,0.057253171,179.6517337,43.67010536,9.273707275,up
-0.747171521,0.092503972,0.637510955,-0.077297047,-0.006536819,0.054789435,181.0729221,45.24101472,8.503324262,up
-0.676329672,0.106585942,0.713544369,-0.032832697,0.036744986,0.038238488,181.5287143,43.31638694,8.967569658,up
0.066187732,0.014810347,0.985753715,-0.024990447,-0.070762999,0.008208413,182.1608073,29.14881242,9.087995285,up
0.102312177,-0.002653485,0.999644458,0.087714195,0.458246291,-0.025389176,181.9961997,31.69726528,9.067451784,up
-0.070841834,0.019908991,0.986241162,0.008912574,0.796665609,-0.01317187,182.9952378,39.81060794,9.367406371,up
-0.216474861,0.044673834,0.960896671,0.129863903,0.661358953,-0.011644707,183.8819467,46.00725608,11.57494144,up
-0.329031914,0.061669316,0.923854768,0.025711369,0.496119946,0.018287688,184.8498528,49.90278617,12.44576836,up
-0.418880075,0.079150379,0.890955687,-0.00422103,0.433811694,0.008513846,185.8763482,53.23820318,13.10462036,up
-0.516133368,0.084006228,0.831981063,0.052894872,0.377917528,-0.001565431,186.8048305,56.40380462,14.63748642,up
-0.555380166,0.075022906,0.773981214,-0.070805341,0.813769877,0.230257928,190.3412839,62.61675642,18.2989852,up
-0.753095567,0.141062483,0.634342909,-0.026071936,0.024720276,0.029992305,190.3104661,61.39856486,18.46731521,up
-0.713355005,0.092503972,0.634586573,0.053817235,-0.01343024,-0.044267327,187.9951549,59.2211552,15.59464352,up
0.181834444,0.044916626,0.981610894,0.052290067,0.289558947,-0.042740166,342.8372014,63.82949749,184.5137665,up
0.120495617,0.058027428,1.013778806,0.01991421,0.548260331,0.011626842,340.7294699,65.47409776,182.6575806,up
-0.031101292,0.02840673,0.999888182,-0.144713968,0.806656361,0.110281579,336.7825187,62.85352493,176.9294798,up
-0.243379951,0.047101758,0.957728624,-0.02437352,0.692424536,0.152736709,331.5928386,57.19799852,171.3737493,up
-0.326563567,0.065796785,0.910695136,0.062369347,0.693340838,0.010099678,330.5878121,53.75123918,170.0232297,up
-0.427025676,0.076236866,0.868048191,0.021135941,0.501834571,-0.021359883,330.7915088,53.56650647,170.1744774,up
-0.546000421,0.080364339,0.796401322,-0.031398468,0.552536368,0.076073125,330.4356116,50.72076621,168.8396262,up
-0.612892926,0.088619292,0.761308908,0.14911221,0.677458346,0.000631267,331.0532109,48.44054512,169.7254744,up
-0.771114528,0.123824216,0.553191841,-0.019459393,0.051960431,0.005125147,330.5530737,48.67041855,168.1702676,up
-0.736804366,0.096631445,0.657737792,-0.055974722,-0.11629878,-0.032691602,329.2920432,54.61787066,165.5926499,up
0.229111403,0.050986439,0.954316854,0.002223589,-0.013038501,-0.004744099,327.4781738,61.54275699,165.9097346,up
0.238809228,0.050258063,0.966501713,0.012171563,0.008834079,-0.010479725,321.2639003,68.63907765,159.1327389,up
0.238081887,0.05487112,0.975031078,-0.054727744,-0.091691822,-0.015701352,308.153301,75.56809283,145.1350585,up
0.028123727,0.096631445,0.993308365,0.420830846,2.857871056,-0.415818095,336.5928205,50.12904985,178.6903299,up
-0.475158602,0.064582825,0.775443316,0.075081125,1.250990033,-0.006232941,337.8889411,37.53956662,179.9566333,up
-0.693114519,0.116297647,0.709645271,-0.044037603,0.383866787,0.014231046,337.5576496,35.33343943,179.386777,up
-0.67879802,0.105129182,0.708914161,-0.003880236,-0.04494109,0.010607252,337.0521541,41.77671887,177.762517,up
-0.666949928,0.087890908,0.717443526,0.002592612,-0.072696656,-0.002586782,336.5367361,48.15556231,176.6467783,up
-0.664728403,0.102215677,0.714519143,-0.009451449,-0.005697113,0.005098506,335.4582919,53.51528688,175.3361743,up
-0.65362078,0.097117029,0.732309043,-0.015595071,-0.02319314,-0.000394882,334.0692534,58.87095091,173.4519983,up
0.001454675,0.06021256,0.982342005,-0.037891656,0.758714378,0.061607938,345.8980883,312.4979673,162.2209133,up
-0.181671038,0.049286895,0.94578743,0.065955438,0.8854689,-0.055372756,358.5476252,294.1533086,152.8252231,up
-0.346310437,0.056085087,0.91508168,0.13406691,0.846068084,-0.11829187,42.13980148,281.3820365,112.4237663,up
-0.526006758,0.068710297,0.819065094,0.084281392,0.626767457,-0.016277378,116.2164474,284.8991536,40.99053678,up
-0.613880217,0.07817921,0.776174426,0.021362275,0.328054368,0.006324636,136.4842141,293.8561475,22.67856909,up
-0.66176641,0.08959046,0.71841836,0.041529883,0.176193833,-0.011381759,143.9983921,301.4481419,16.19876863,up
-0.658310711,0.084491819,0.719636798,-0.017979369,-0.051368598,0.014317557,148.0846484,306.8723776,12.69095508,up
-0.642266333,0.081578307,0.720124185,0.040587839,0.019637229,0.017286114,151.3134017,312.8363212,10.35547947,up
-0.659791648,0.105614766,0.725972891,-0.013190124,-0.052554302,0.000989579,153.509171,318.1604161,8.821663157,up
-0.633627057,0.10100171,0.751317382,0.002553251,-0.023108911,-0.000866494,155.045663,322.4195376,7.799835268,up
0.133345246,0.068467505,0.982342005,-0.027846938,-0.004257623,0.001809563,156.8239847,323.8151912,358.2933553,up
0.169469699,0.07550849,1.031081438,0.113873795,0.63837266,-0.078824647,156.9146486,328.6679005,359.8787778,up
-0.06195575,0.086676955,0.987215936,0.044540595,1.219000101,-0.012240337,157.7534232,344.8130846,1.400329653,up
-0.306816727,0.106100358,0.924098432,0.159383252,0.759629369,-0.041256439,158.4896766,355.90374,2.945816193,up
-0.415671229,0.137906194,0.866829693,0.129145429,0.542161345,-0.041561872,159.3241208,3.53267245,4.49974442,up
-0.508728266,0.154416084,0.849770904,0.029574398,0.845455945,0.035101719,160.942739,13.94543372,5.902677228,up
-0.622766316,0.16534175,0.721586347,0.068058908,0.403494924,0.077862285,163.480851,20.62392695,7.687232769,up
-0.653127134,0.160485893,0.684544504,0.00276291,-0.106484964,0.010281282,163.9699745,20.65365364,7.590267989,up
-0.647449911,0.174082264,0.712569594,0.015644092,-0.012863211,0.001638308,164.5458141,21.80630954,8.114169111,up
-0.6662094,0.191563338,0.703309119,-0.083010644,-0.308216572,-0.002026883,164.5501444,20.724662,7.452819823,up
0.080492049,0.099544957,0.98063612,-0.028559538,-0.061486725,0.005116635,164.9979316,8.772480673,1.811812051,up
0.096735924,0.097359821,0.999400795,-0.015936196,-0.001772452,-0.001648235,165.3771164,7.783284012,1.976738068,up
0.066430181,0.11508368,1.015728474,0.05584047,0.908722162,-0.160473198,164.4797935,17.5741365,3.711321597,up
-0.138968468,0.13450709,0.968207598,0.120592192,1.009820461,-0.096637778,164.7859772,28.17822717,5.626799911,up
-0.399873763,0.129651234,0.867804468,-0.018379655,0.74073422,-0.008978617,166.1839803,38.54471434,5.940345722,up
-0.523785233,0.138391778,0.808098733,0.06744691,0.633221984,0.002933254,167.8797524,45.96217683,7.642775922,up
-0.590677679,0.15975751,0.784703851,0.024380915,0.668957591,0.110445544,171.6372307,51.83095199,11.1850657,up
-0.701506913,0.172625527,0.637267232,0.006054956,0.518073857,0.160536483,178.3969733,57.72698985,17.31578972,up
-0.794317126,0.190592185,0.593158126,0.06135929,-0.1554645,-0.127320245,178.0601083,58.11375614,16.60547395,up
-0.722734809,0.177481368,0.636779845,0.002639774,-0.051591754,-0.01842529,177.9180267,56.92963698,16.44416879,up
0.143043086,0.0881337,1.006711721,0.169711411,0.589205861,-0.12624301,333.6382241,48.89499859,185.4483823,up
-0.006417727,0.13159357,0.985997438,0.145582244,0.771243691,-0.060574993,332.2469453,46.64561239,185.1942719,up
-0.168588743,0.142762035,0.950174034,0.192313433,0.569352746,-0.019341588,330.5073354,46.9869067,184.4731815,up
-0.317677468,0.183793977,0.897535443,0.144055068,0.792929411,-0.031864326,329.1819337,43.99360361,183.8208575,up
-0.43369022,0.196176395,0.833930612,0.115955278,0.347303271,-0.005291687,327.9380299,46.16483879,182.2823847,up
-0.563772619,0.213414669,0.803468525,0.072583839,0.715960383,-0.027893702,326.9451936,43.03890026,181.2575284,up
-0.605734646,0.212443501,0.737182975,-0.048367474,0.617916524,-0.042249035,327.0013959,42.232091,179.8982079,up
-0.705209434,0.207102075,0.620208442,0.0206603,0.358298838,0.097028241,325.0904319,42.29402374,177.5913798,up
-0.710886657,0.204188555,0.649695814,0.015326429,-0.015388083,-0.064967878,324.2247327,47.55712162,176.0543003,up
-0.72816515,0.219484478,0.633368134,-0.010262512,-0.003631651,-0.005763751,322.6679823,52.19832054,173.5889982,up
-0.067139298,0.127951682,0.983316779,0.075564057,0.614869356,-0.049746048,316.517175,317.1264654,203.2641111,up
-0.218696386,0.152959317,0.967720211,0.16383408,0.796907246,-0.09830983,305.4263787,299.379865,216.4010101,up
-0.380867392,0.17335391,0.88364476,0.09083569,0.537594974,-0.055243835,279.5593527,288.2029366,243.2574095,up
-0.463063687,0.184522361,0.845384359,0.037079543,0.525683045,-0.029892929,231.0033534,286.4627751,292.5922074,up
-0.548715651,0.128194481,0.789090395,0.052656606,0.423057735,-0.053716674,200.432219,293.4119872,323.4508723,up
-0.610671401,0.17942372,0.765695512,0.073731452,0.576384902,-0.039361339,185.9256622,303.8506985,338.4700058,up
-0.668430924,0.196661994,0.676015079,0.179411143,0.481395364,-0.050967779,180.1155891,313.5335503,346.1430864,up
-0.762968957,0.196904778,0.583410263,-0.005585544,0.133666158,-0.026087234,176.680014,322.8311317,350.4475288,up
-0.751367688,0.206373692,0.616796672,0.00900742,-0.00486891,-0.008115802,175.0356869,327.6518143,352.7565536,up
-0.736804366,0.204431355,0.604611874,-0.016458482,-0.053575523,0.007906344,174.037769,332.043018,354.4394201,up
0.041700698,0.097359821,1.016703248,0.177185804,0.374946415,-0.058677964,174.4763627,25.25249173,18.29249311,up
-0.129588708,0.142033651,0.970157146,0.211699665,1.01879847,-0.054401912,177.3850944,35.35681233,21.93136518,up
-0.283614159,0.173839495,0.922392607,0.075171299,0.750323117,-0.071506135,179.7792806,41.26591293,24.15123813,up
-0.431221873,0.184279561,0.866829693,0.010114156,0.624790311,-0.026607541,183.2805212,47.52502657,26.18359507,up
-0.529462457,0.177724168,0.804686964,-0.02531603,0.393883288,0.006990046,186.2555194,51.48783402,28.24548062,up
-0.592899263,0.18792145,0.792745829,0.047682367,0.604326308,0.029286627,191.9453675,56.25473916,33.09158009,up
-0.647203088,0.195690811,0.712813318,0.108768888,0.351428151,-0.045544364,193.2966794,59.03725236,35.59849858,up
-0.741247475,0.211957917,0.629468977,0.012863047,0.61196214,-0.012557643,202.3817736,64.80773085,43.70823831,up
-0.770127237,0.231866911,0.604611874,-0.03329229,-0.042800549,-0.014884535,201.2356952,64.63739276,42.28416777,up
-0.764450014,0.218998894,0.579023719,-0.033613037,-0.141669214,0.009532197,198.4390742,63.27568526,39.20948982,up
-0.171303928,0.128922865,0.954316854,0.141705289,0.471028626,-0.068658553,323.6280713,23.15573294,182.8546589,up
-0.258436918,0.159029126,0.938232839,0.134374917,0.488132834,-0.061633602,323.3797529,25.57259879,182.6364753,up
-0.303114176,0.170440391,0.93555218,0.005023167,0.308196247,-0.029985184,323.0903851,30.26936301,181.2947666,up
-0.387531996,0.179666504,0.886812806,0.048089169,0.363479525,0.004528704,322.3512665,33.18682708,179.8930442,up
-0.468987733,0.192777306,0.845140696,0.10306704,0.46946466,0.019800335,321.1705351,34.10860892,179.2452418,up
-0.538101733,0.21535702,0.798594534,0.113451749,0.389135867,0.050343595,318.9963629,35.66849436,177.1546302,up
-0.626468897,0.241821393,0.718905687,0.007466629,0.415097654,0.033544801,317.6509284,35.68534443,176.0962104,up
-0.720760107,0.263672709,0.653351307,-0.078054503,0.230616361,0.128534347,314.5113226,38.1896128,170.2228761,up
-0.647203088,0.241821393,0.666023493,-0.106508866,0.153574243,-0.071581401,312.7139891,41.29677855,167.1520777,up
-0.667937279,0.224825919,0.690636873,-0.167595387,-0.400785953,-0.048063088,308.8854324,50.03135765,161.7758445,up
0.101584837,-0.014714779,0.975518465,-0.266678095,-0.022455247,0.004847351,173.8271806,354.0269291,358.9632678,up
0.044367604,-0.047762729,0.991846144,-0.124957368,0.539235353,0.000571295,173.6590896,359.7578586,357.481915,up
-0.066398792,-0.049692538,0.98404789,0.025926348,0.364833325,0.075096853,172.9794721,4.212866656,358.1935358,up
-0.178462178,-0.044868015,0.960652947,-0.014085326,0.425003558,-0.022336151,172.7067427,10.37972408,357.8737922,up
-0.228569806,-0.037872463,0.980392396,-0.042795993,0.372469127,-0.006759088,172.6022408,14.20199014,357.8723239,up
-0.310272425,-0.039078593,0.929216087,-0.035160176,0.341315001,-0.000955868,172.2721651,18.20940215,357.924644,up
-0.387285113,-0.03642511,0.90143466,-0.049210079,0.30527395,-0.003399329,172.1613521,22.43211025,357.6165218,up
-0.421348453,-0.045591693,0.879501939,-0.05926032,0.150690436,0.015467365,172.183318,24.30859544,357.3319172,up
-0.478120655,-0.043179438,0.853182673,-0.074226521,0.371518224,0.016994528,172.2472212,28.72426152,356.6278107,up
-0.552418172,-0.052587245,0.792014778,0.029009704,0.389538765,0.005388089,171.8836776,33.78315382,356.1165773,up
0.187653139,0.00752657,0.973325253,-0.006166101,-0.017036399,-0.001541927,171.2664743,29.10338824,352.6699383,up
0.160499185,0.03204862,0.999157071,0.10134618,0.386440098,-0.126463875,169.5901137,31.20925168,355.0131905,up
0.090432331,0.031805828,0.999157071,-0.100239351,0.450275511,0.022587249,169.360551,33.82244449,353.9972912,up
-0.053563334,0.019423407,0.980879843,-0.037625659,0.618874311,-0.025976537,168.5658039,39.97694012,353.8539332,up
-0.151063412,0.00849774,0.969426036,-0.039763689,0.581611574,-0.076372921,168.0220935,43.98017888,352.9852536,up
-0.276702762,-0.002894711,0.941888332,-0.036403932,0.48173508,0.000901534,167.4813884,47.41600309,352.6666803,up
-0.350506604,-0.013026198,0.920930386,-0.053813588,0.44722119,-0.010399474,166.8577648,50.23276627,352.1467159,up
-0.425544649,-0.01760949,0.867560804,0.023766298,0.315274298,-0.004290821,166.5083597,52.16735247,351.7260984,up
-0.499348521,-0.022675235,0.830518842,0.015214186,0.279538691,-0.005817984,165.8764169,54.83223273,350.9716314,up
-0.55217135,-0.010131488,0.827594519,-0.07000152,0.223033652,0.000901534,166.1989111,56.78708068,349.9087618,up
0.124617197,0.034233753,0.99842602,0.028750487,0.023819497,-0.006025305,169.5419335,45.43703091,354.1357695,up
0.09358412,0.052443195,1.003787279,0.015922315,0.459366411,-0.070777021,167.6691776,48.02491787,354.371922,up
0.027396388,0.068467505,1.007442713,-0.100447513,0.742502451,-0.036568567,166.9806399,51.27342072,353.9799716,up
-0.177968502,0.031805828,0.958459735,-0.083648719,0.837491989,-0.057032555,164.4826348,59.01290956,351.6197575,up
-0.339645863,0.025736013,0.924829543,0.024474427,0.73120141,-0.073525913,161.2101819,65.61408932,348.8438926,up
-0.475405455,0.024036465,0.83929193,0.042494953,0.476776093,-0.010606794,159.3545698,69.40638793,348.026336,up
-0.574880242,0.034719341,0.796401322,-0.037833825,0.317034811,8.33E-05,158.9869827,71.7538215,347.5470454,up
-0.636835992,0.04224591,0.762040019,-0.024700224,0.353075862,0.015354979,158.2387491,74.01461411,347.2066783,up
-0.673120797,0.017723856,0.656762958,0.048568368,0.089005619,0.005851868,157.8124087,74.26416873,347.7534614,up
-0.687437296,0.033990961,0.727191448,-0.007631231,-0.213983551,-0.040268458,158.9457147,70.04126767,347.7028753,up
0.229596287,-0.00820168,0.989165485,0.109349467,0.226755723,-0.05248576,125.504084,78.87724435,331.6614683,up
0.173833713,0.013353592,0.971131921,0.128286272,0.411237031,-0.051569466,127.2858208,78.47720017,333.1589258,up
0.066672623,0.026221598,0.987947047,-0.015267048,0.346179873,-0.015833849,132.1661275,78.6389732,337.7116652,up
-0.006911398,0.018452236,0.992820978,-0.02962238,0.448194385,-0.033854373,135.7366499,79.07578429,341.0127418,up
-0.129588708,0.002913511,0.983073056,-0.120030433,0.462244272,-0.016139282,136.2711259,81.071347,339.5865692,up
-0.266582519,-0.045591693,0.940913498,-0.247395843,0.701703429,-0.036603265,111.4063891,85.99620708,310.883495,up
-0.386297792,-0.068508156,0.892661572,-0.007325798,0.526690543,-0.007892599,81.61659417,87.29527491,279.9249249,up
-0.509221971,-0.07164409,0.838073432,-0.057111315,0.402990341,0.148488909,16.18866165,88.43827292,212.676385,up
-0.578089058,-0.060065247,0.757653534,0.07850077,0.480570227,0.13657704,332.7885964,86.4535907,169.1696882,up
-0.672627151,-0.037390016,0.696729302,-0.073149994,0.049768366,0.072560474,305.1189109,86.78661024,141.0014963,up
0.100857504,0.009711703,0.984535277,-0.005539313,-0.024085948,0.001052936,183.2159213,81.58349507,13.81756661,up
0.103039511,0.007769363,0.98404789,0.024589147,0.05001311,-0.013228355,177.5392928,76.67285543,8.242942083,up
0.082674064,0.010682873,0.968938649,-0.002345964,-0.043465547,0.00154063,175.2760823,71.63330964,5.860338166,up
0.083886288,0.008254947,0.978686571,-0.022841733,-0.036323875,-0.001773856,174.2335358,66.8178282,4.653843733,up
0.098433048,0.007283777,0.999157071,-0.057110325,0.296879619,0.007380435,173.5246305,63.87751372,3.996086271,up
-0.001481014,0.003641889,0.98063612,-0.094678536,0.477390319,0.022041202,174.1013853,64.52062384,4.097827488,up
-0.13378492,-0.034736529,0.995745361,-0.310924828,0.782517493,0.039145429,177.0031775,71.35571026,1.030209812,up
-0.278183788,-0.066578344,0.925804317,-0.023207303,0.239458308,-0.023162827,175.5997922,72.6441025,357.8467581,up
-0.345323056,-0.086117648,0.915569067,-0.124305502,0.564438581,0.042810619,175.1887924,76.01706165,355.9024713,up
-0.457880139,-0.075262479,0.848308742,0.064146429,0.259005994,-0.01766504,174.5102541,76.38246994,355.6312501,up
0.076370463,0.033262581,0.975031078,-0.028576039,0.077587411,0.031880111,167.7498148,71.43604694,338.2730795,up
0.034912214,0.042488702,0.975518465,-0.07275217,0.074463904,0.011054654,169.7793236,68.96590903,340.3563572,up
-0.017525332,0.025007635,0.987215936,-0.131700665,0.643179417,0.005862298,162.2391772,73.1718439,332.8313448,up
-0.139955819,0.033748168,0.971375644,0.012463536,0.361265153,-0.038425434,159.5450911,72.97520275,331.8742475,up
-0.24288629,0.023308087,0.950661421,-0.017774295,0.318199158,-0.074771918,154.9167773,73.15346386,327.9652073,up
-0.308544576,0.013353592,0.924342155,-0.029380735,0.308119863,0.001586242,154.1200767,73.04288993,328.0221676,up
-0.38876614,0.018209444,0.893392682,-0.011360209,0.381423712,-0.029262453,148.8944356,74.38073957,323.9528639,up
-0.467753559,0.007283777,0.856107056,0.007271178,0.252836555,-0.032316782,146.8012695,74.29306726,323.4685078,up
-0.560810626,0.00849774,0.776661873,-0.001891799,0.152043805,-0.040258028,145.409195,74.47811075,322.2379434,up
-0.555627048,0.013353592,0.826376021,-0.028330788,-0.131779954,-0.0111221,151.5144825,71.86378754,328.6589974,up
0.22474736,-0.022675235,0.963089943,0.020951599,-0.012627846,-0.018773671,160.3196892,61.29350289,337.2244883,up
0.211412832,0.000728378,0.925804317,0.073180579,-0.066383988,0.145549074,166.4243074,56.67666385,347.609534,up
0.237839445,-0.006030648,1.006711721,-0.207817435,0.169715434,0.095458128,167.6950914,53.48514184,345.4053833,up
0.093099229,-0.071885318,0.927510202,0.115330279,0.718577862,0.027346654,166.653064,56.52378372,343.8941612,up
-0.027645594,-0.032565497,0.986484826,-0.034026273,0.913443863,0.084157124,164.9157098,61.7129653,342.7562141,up
-0.197962195,-0.038596142,0.956997514,-0.079230301,0.728351712,0.000468584,161.7486057,66.07196471,339.5988363,up
-0.333721787,-0.061995056,0.917762339,0.03377977,0.674901009,0.06155511,156.0179541,71.17257923,335.2263865,up
-0.472937107,-0.041973308,0.850014567,0.033474334,0.426889688,0.086906016,154.2864465,75.13787287,334.4636712,up
-0.549209297,-0.024846269,0.807611346,-0.173608989,0.336481631,-0.020300835,150.4741218,76.83191688,329.3114034,up
-0.575867593,-0.078398421,0.790308893,-0.059418745,-0.219545126,0.020000696,156.2085847,74.0969657,335.3620784,up
0.102312177,-0.028223429,0.985266328,-0.034259696,-0.098050654,-0.001013116,174.4115032,44.9309173,345.5336013,up
0.087038085,-0.020504201,0.985022664,0.095854603,0.286183596,-0.011397826,173.3252436,45.31370501,345.854399,up
-0.06664563,-0.038113695,0.958703399,0.007584576,0.693936169,0.028308416,170.9775983,51.15054903,344.0855568,up
-0.212278664,-0.025087493,0.955291629,-0.01623917,0.441037923,0.003873806,168.858177,54.44934257,343.475877,up
-0.282379985,-0.029188333,0.930678308,-0.058388874,0.403775156,-0.001318549,168.1084271,55.69072604,343.5458369,up
-0.353221804,-0.049692538,0.898754001,0.029270291,0.416908771,-0.000707684,166.646029,57.30403038,343.0361802,up
-0.436899096,-0.048486404,0.87682128,-0.092597321,0.27152282,0.009677025,165.2710299,59.31711936,341.6657266,up
-0.460101634,-0.043661885,0.86317426,0.019801877,0.339634299,0.137042433,166.4119311,61.09902009,343.2137753,up
-0.57191819,-0.007236777,0.802250028,0.121510945,0.4040806,0.193242028,169.5920944,64.45012946,347.3120792,up
-0.640291691,0.03204862,0.729140997,0.038106143,-0.066302039,-0.075983517,172.5875695,63.97117611,351.623316,up
0.103039511,0.002427926,0.993552089,-0.013594069,0.101819448,0.026760735,178.99288,72.34996724,354.4158286,up
0.048974074,0.001213963,0.993795693,-0.078345783,0.443598539,0.064328946,179.1577471,72.80541108,354.3101293,up
-0.054797515,-0.019056847,0.955047965,0.049325053,0.249037966,-0.078002661,178.4513416,71.90668796,354.3043245,up
-0.092316531,-0.018574392,0.975518465,-0.268630296,0.208720863,0.107394941,180.5127783,70.35725272,353.9617755,up
-0.190557122,-0.04173208,0.963333607,0.020614389,0.543475032,0.020652082,178.1022916,73.86566135,352.0653556,up
-0.295709103,-0.050174985,0.942619443,-0.015426662,0.527897954,0.107394941,178.0127205,76.31560239,352.2354213,up
-0.420114279,-0.029188333,0.875359058,-0.030392863,0.381290287,0.127248064,182.4900224,79.08708825,356.7222302,up
-0.487500399,-0.00410084,0.847333908,0.054211978,0.376403362,0.074408218,185.6148749,80.37125944,0.83137244,up
-0.554392874,0.006312607,0.796644986,0.016032893,0.303404987,0.031342223,186.78281,80.38901793,2.742529273,up
-0.618816972,0.0293779,0.74985522,0.048103321,0.348914444,0.064939804,189.7478497,81.36523637,6.957605495,up
0.077097803,-0.026052397,0.986241162,0.004170407,-0.007148424,-0.008950805,175.1841206,76.00330565,350.0082093,up
0.060853925,-0.010372713,0.999157071,-0.000411082,0.460774332,-0.035218012,169.8297167,76.62089818,345.2395377,up
-0.011107604,-0.015679682,0.996476471,0.000810649,0.383805335,-0.044991855,166.5018437,75.62291192,342.7028874,up
-0.104905151,-0.023157686,0.979417682,0.06800583,0.338906735,-0.031247389,163.6745278,75.85586236,340.5886946,up
-0.213759676,-0.01061394,0.955535352,0.013027955,0.552098691,-0.024833303,156.4142007,78.42110382,334.1799861,up
-0.345076233,0.00097117,0.907770753,0.123289123,0.375558645,-0.078589439,150.7845265,80.45523661,330.6554002,up
-0.39863956,0.023550879,0.898754001,0.066784099,0.357843548,0.04511077,152.3005553,81.26823403,333.4265053,up
-0.533658683,0.047830135,0.79420805,0.11779134,0.487652421,0.04877596,146.094823,84.71876363,328.9125033,up
-0.615114391,0.052200403,0.763014853,0.064035207,0.425038725,-0.012005132,129.5528562,86.56697867,313.3103431,up
-0.668184102,0.077450834,0.698922515,-0.005714443,-0.026144456,-0.01469883,151.7709015,84.37760935,336.3693162,up
0.118071161,0.009711703,0.98136723,0.011166606,0.011613307,-0.01866797,134.9679394,80.11761353,323.0841765,up
0.096008584,0.034962133,1.0052495,0.042015303,0.47831434,-0.027220083,134.1851724,79.67428644,323.7326551,up
-0.022955714,0.030834658,0.97722435,0.068282515,0.359806478,0.036309902,140.3593356,79.73164637,330.8832075,up
-0.094044387,0.053171575,0.984291553,0.037128385,0.490226209,0.025925193,143.8585235,80.22531195,335.3749107,up
-0.2451078,0.065311208,0.930921972,0.11134851,0.505497873,-0.033328734,133.9927797,83.18888322,327.3535502,up
-0.341867387,0.090804428,0.922636271,0.041709874,0.475565463,0.003934045,126.034735,85.57884155,319.9263546,up
-0.448500365,0.08959046,0.840997815,-0.020903816,0.303301454,0.024703464,136.8550387,86.43745097,329.9275684,up
-0.519095361,0.085948572,0.840754092,0.016969826,0.656381607,-0.033634167,68.14315127,88.12434377,261.6737578,up
-0.670405626,0.122853041,0.696729302,0.1327288,0.586742938,0.121525608,341.2511393,83.7294927,175.8984491,up
-0.69410181,0.154416084,0.685519218,-0.039813556,-0.007722368,-0.01933039,335.8251755,86.21715687,171.2381291,up
0.078067586,0.04807293,0.985266328,0.023375127,0.058361135,-0.000385496,337.7733179,79.29133823,185.0118649,up
0.02497193,0.076236866,0.999644458,-0.00503011,0.624938667,0.006639454,332.9198077,78.67115705,180.5136389,up
-0.120949462,0.068467505,0.977711737,0.016961042,0.560186923,-0.023292944,328.527646,77.54761142,175.7497149,up
-0.258190095,0.074537314,0.934577405,0.118975535,0.520480692,-0.028790731,327.563657,75.46895946,174.499039,up
-0.382842094,0.089833252,0.913375795,-0.053288464,0.67533505,-0.008937609,326.4384312,72.02215231,172.3804372,up
-0.518354833,0.091532797,0.814678609,0.015433874,0.476803839,0.062533624,322.8900967,70.20870293,167.713328,up
-0.580557466,0.085220195,0.782023191,-0.132395506,0.474360377,0.213417336,316.9126532,69.22582505,159.7672088,up
-0.639797986,0.08959046,0.720367908,0.001994841,0.334472239,0.054286942,314.5836987,69.13932753,156.9092938,up
-0.727671504,0.122124664,0.662124336,0.007366702,0.16698952,0.007729064,313.1562848,69.35971042,155.1268603,up
-0.729892969,0.113141336,0.653107584,0.036472566,-0.117813945,-0.010066246,306.9761077,73.42277822,148.4238629,up
0.004364027,0.024522049,0.983804166,0.135127306,0.440822303,0.01620096,324.1768975,4.155589971,176.296977,up
-0.103424132,0.050743647,0.987947047,-0.010869492,0.601479828,0.05468547,323.4987109,7.343236268,174.3506053,up
-0.25769642,0.050258063,0.934577405,0.084425487,0.598425508,0.003678222,323.5375986,8.499414832,172.5331739,up
-0.375683844,0.067253545,0.902896881,0.095115624,0.440822303,0.004899953,324.4602137,11.61152223,171.8199382,up
-0.479354829,0.082063891,0.86658597,-0.122657828,0.53642267,0.036970381,324.3292756,13.13224165,168.4524501,up
-0.52082324,0.068224713,0.848552465,-0.062793039,0.467700392,0.006427116,324.5159515,16.64673171,165.8895035,up
-0.590677679,0.064825617,0.765939176,-0.116854608,0.528786898,0.097446032,324.2700988,18.60321036,164.251187,up
-0.664975226,0.062883273,0.701115847,-0.032555208,0.473503619,0.175025925,323.5344192,19.45999783,162.0563331,up
-0.730386734,0.090561636,0.634586573,-0.068061203,0.075791031,0.051694356,321.9355607,23.79139132,159.866752,up
-0.732114553,0.084006228,0.653594911,0.034115262,-0.011813184,0.005813227,320.3431738,30.38857713,157.680586,up
-0.012341782,0.008983325,0.98404789,-0.039188568,0.618294299,-0.028395226,19.34980639,306.7002363,129.3353147,up
-0.137734294,0.025736013,0.981123507,0.011513248,0.752073765,0.034218464,42.60562038,297.1804894,109.6928995,up
-0.265101492,0.028892318,0.937501729,0.087565973,0.460691094,0.001842603,69.23595422,293.4361729,85.90547485,up
-0.33939901,0.043702662,0.922392607,0.019149065,0.426177204,-0.017094219,94.47958207,294.6972717,62.50789004,up
-0.429494023,0.042731494,0.876333892,0.001433969,0.420373976,-0.013429029,115.745779,300.5069828,42.92663927,up
-0.498607993,0.055356707,0.841972589,0.052441217,0.421290278,-0.014956192,128.2337281,307.7783544,32.11361995,up
-0.558342218,0.076722458,0.820771039,0.144681871,0.598441184,0.020473992,138.5968326,318.1516598,25.21013431,up
-0.661025882,0.109985039,0.723779678,0.117192939,0.484820276,0.042465143,145.8108101,327.9042,21.53071311,up
-0.738285422,0.129165649,0.636048794,0.044499971,0.345542997,0.005813227,150.4233325,336.3667498,20.07640533,up
-0.769633532,0.13450709,0.578779995,0.059460018,0.046094187,-0.019903449,152.651709,341.7919741,19.25769275,up
0.156862512,0.010925665,0.975274801,-0.003904026,-0.02221461,-0.000603828,150.7665905,339.9394749,16.83483682,up
0.158802062,0.014324762,0.985510051,0.049010172,0.083384737,-0.028450599,151.8083309,340.983261,15.90660899,up
0.103039511,0.041760322,0.989652932,0.101239152,0.384235889,-0.05349607,153.1848872,346.0803502,15.71310803,up
-0.000740507,0.061183728,0.98063612,0.083524056,0.372934878,-0.051358044,154.9228425,351.0588623,15.8496862,up
-0.109841868,0.095417485,0.991115034,-0.004440535,0.642021,-0.040973336,157.5711801,359.3760868,14.89853796,up
-0.258683771,0.091775589,0.944568992,0.037403733,0.635606945,-0.058688428,159.8618479,7.480679311,14.29307755,up
-0.411968678,0.100516126,0.868535578,0.093908764,0.608423412,-0.052885208,161.7099059,16.09282385,14.84493293,up
-0.521316886,0.116540439,0.829787731,0.038320035,0.552223802,-0.057466697,163.5127753,23.76969693,15.33163171,up
-0.60968405,0.11362692,0.778367698,0.033738546,0.415390015,-0.06143732,164.8702071,29.72562531,15.09836368,up
-0.70126009,0.116540439,0.66651088,-0.029791443,0.584599674,0.035690255,168.1853214,37.49275251,16.07157001,up
0.090917222,0.095417485,0.984779,-0.007600863,-0.019891355,-0.005338205,165.4747608,32.96862644,13.13312445,up
0.089220099,0.090561636,0.983804166,0.013762124,-0.023860142,-0.005919355,165.2796633,30.4481876,12.58562588,up
0.089220099,0.10245847,0.982342005,-0.049936585,-0.066324793,0.000194969,165.2713031,27.82719984,11.93511183,up
0.094311461,0.086676955,0.998669684,0.067044109,0.328905016,-0.048674248,165.4472761,28.48073112,12.25304518,up
-0.000987343,0.090804428,0.992820978,-0.060932159,0.687788367,-0.043481894,167.1933184,34.44251638,12.05610351,up
-0.222398922,0.103186846,0.875846446,0.013898831,0.733603239,0.006914487,170.7007161,43.00201724,13.50610571,up
-0.358899027,0.102944054,0.905090094,-0.02030962,0.589439094,-0.034013484,173.1153656,49.49709001,14.62461664,up
-0.466766208,0.105371974,0.854157448,0.037417147,0.38388288,-0.019352719,174.4829743,53.036757,16.02317129,up
-0.545506775,0.11508368,0.797376096,0.070403874,0.428476036,0.026462175,177.4165406,56.94122098,18.96306913,up
-0.617089152,0.129408449,0.751317382,0.02978133,0.690842688,-0.015076661,180.6542998,61.42497038,22.00183224,up
0.164863214,0.07162381,0.981854618,0.018414482,0.013623016,-0.000926926,178.9985354,58.8437531,25.98881174,up
0.167530134,0.078422002,0.999400795,0.100575864,0.462914407,-0.067816667,178.2105911,58.74248871,25.69040419,up
-0.004936713,0.112898543,0.976493299,0.10546279,0.742079794,0.028394604,185.4840222,63.35354942,32.78510268,up
-0.141189992,0.111198999,0.961140394,0.058731593,0.627848029,0.073293202,190.7721732,65.36264273,37.19105622,up
-0.279911637,0.13717781,0.929947197,0.047736019,0.50353694,-0.001843224,197.4338889,67.83981574,43.36583751,up
-0.375930697,0.127951682,0.898997664,0.020552516,0.484600127,-0.016503992,202.8600371,69.78182977,47.74899871,up
-0.468000382,0.142033651,0.847577631,-0.018237427,0.396635532,0.011595812,206.3650443,70.64580089,50.15948176,up
-0.541804254,0.138148978,0.822964251,0.059037022,0.673052073,-0.019863749,216.5089407,73.06144072,59.656409,up
-0.652633488,0.164370582,0.720855296,0.036129579,0.388694286,-0.01070077,228.280321,74.63512314,71.21172987,up
-0.682006896,0.1539305,0.682107449,0.068200007,0.54324317,-0.028415862,236.1743667,75.29226247,78.68604686,up
0.118798494,0.074294522,1.000375509,-0.032592762,0.459554642,0.048858594,319.4611914,4.86473863,176.9323075,up
-0.009379755,0.063611656,0.996232748,-0.077491358,0.676411808,0.048858594,318.6333964,5.628631256,173.7041552,up
-0.147360891,0.062883273,0.973325253,0.050790347,0.418321252,0.032670662,318.4098751,8.539898217,171.4428981,up
-0.226841956,0.068710297,0.948468089,0.008029778,0.436647207,-0.008257309,318.0656438,13.6087054,169.1230107,up
-0.327550888,0.073323362,0.931409299,0.061175056,0.486432701,-0.021390913,318.223667,16.35074034,167.3214664,up
-0.426778823,0.07308057,0.875602782,0.004364587,0.411601722,-0.001843224,318.5063173,19.21215588,165.7730352,up
-0.511937141,0.092746764,0.822964251,0.061175056,0.37769869,0.01037408,318.5277915,21.48818836,164.3858374,up
-0.596108079,0.101244502,0.773981214,0.003753722,0.456194878,0.005792591,318.8980492,23.06803672,163.1181406,up
-0.688918293,0.118725568,0.69453603,0.18823503,0.329440355,-0.005202983,318.8484415,24.29969571,163.3033207,up
-0.713601828,0.141548067,0.630443752,0.086831391,0.363648802,0.018926194,318.9793489,25.75842945,163.3187023,up
0.029820848,0.075022906,0.985022664,0.1103497,0.45039165,-0.038189705,324.4116272,311.7441056,198.4958467,up
-0.136500105,0.126009345,0.987215936,0.008029778,0.738109171,-0.018031154,310.8105827,294.4334556,212.6960149,up
-0.241898924,0.12042512,0.951148808,-0.011517912,0.571953833,-0.044909224,281.4957045,283.6145999,241.5761038,up
-0.379633248,0.12042512,0.897048116,-0.051529586,0.429316819,-0.066900373,221.8103013,282.3743946,300.6308688,up
-0.420114279,0.104400806,0.889006078,-0.048475258,0.44214499,-0.028415862,190.899966,290.2075083,331.0427197,up
-0.506506801,0.108042702,0.843434811,-0.037785117,0.297980785,-0.027194133,181.6908766,298.0229864,339.814245,up
-0.579076409,0.092018381,0.777392983,0.07217063,0.479102343,0.002432832,175.2440896,309.2034153,346.7147971,up
-0.679538548,0.116297647,0.698678911,0.122567013,0.596999347,-0.076368786,172.2157887,321.9834539,351.0738879,up
-0.820481658,0.138391778,0.602662265,0.16654931,0.742385268,0.062603056,170.4389969,335.1281018,355.065552,up
-0.820481658,0.151259765,0.468141645,0.041880172,0.097484916,0.029709263,170.1081562,342.4131918,356.03244,up
-0.036038004,-0.003377163,0.979905009,0.172299907,0.751416206,-0.124534212,52.06236563,86.81567952,259.6636263,up
-0.157974809,0.016752686,0.971619308,0.106937319,0.731868505,-0.136751518,21.07212397,85.46498912,229.2009075,up
-0.305088878,0.033748168,0.929947197,0.126790449,0.608779132,-0.059477061,2.603641645,83.25537511,211.9911394,up
-0.43912062,0.059969768,0.88778764,-0.025315003,0.415134847,-0.095823549,357.3415796,82.27660901,206.135345,up
-0.543285251,0.048315722,0.796401322,-0.023787841,0.527839482,-0.042678267,349.820006,79.00625979,197.6638341,up
-0.617829621,0.043702662,0.751073658,0.028441142,0.615193248,-0.028017504,345.9643079,76.71560559,193.1419347,up
-0.725696802,0.045159418,0.662611723,-0.028980194,0.578541338,-0.010302411,344.6194402,73.58921627,190.3434695,up
-0.843931079,0.053899955,0.556359947,-0.083958067,0.386424184,0.047424357,337.301164,69.86379887,183.3083201,up
-0.78296268,0.020637369,0.559527993,0.030503731,-0.064158358,-0.073945485,336.8873109,74.67320144,182.3416024,up
-0.771114528,0.030591864,0.567813694,0.016173981,-0.042165503,0.01234722,335.8226842,79.13183965,180.5142399,up
0.078794926,0.007283777,1.004762053,0.023809798,0.529298902,-0.150753796,346.2230628,7.4663214,178.6052667,up
-0.065164611,0.00849774,0.998913348,0.01311966,0.926361322,-0.076228239,347.3539099,6.606981576,179.3293897,up
-0.251525521,0.008012155,0.933602631,0.056185655,0.736382246,-0.001091816,347.4016572,8.392388329,178.9562018,up
-0.390740812,0.029863488,0.885350645,0.003956679,0.377498925,-0.008116766,347.3327679,11.49938503,179.5980757,up
-0.442082644,0.021122955,0.845140696,-0.063238494,0.313052654,0.028535148,347.1257884,16.75238961,178.5900081,up
-0.542791605,0.00946891,0.816140711,-0.012536682,0.575724661,-0.009643929,347.2729875,17.51304046,178.1967394,up
-0.628690422,0.053414367,0.729140997,0.060947046,0.125509575,0.086914234,346.4294515,22.11044762,179.0722468,up
-0.666949928,0.027192768,0.701603234,-0.105513729,0.617256105,0.10218586,345.2801227,22.05713458,177.2162248,up
-0.755810797,0.04151753,0.603880763,0.003220282,0.34419933,0.068282843,344.0997243,24.72288398,176.5986801,up
-0.761241138,0.029863488,0.591452241,0.070044212,0.096776612,-0.00745919,343.8262504,29.06964369,176.3383406,up
0.173591286,0.054385535,0.991115034,-0.005835664,0.245877266,-0.040957082,351.2848033,9.784099991,170.5965694,up
0.107888438,0.044916626,0.99428314,-0.00400307,0.507022202,0.01493709,351.1746263,14.59729759,170.5057415,up
0.013092079,0.052928779,0.998913348,-0.023856189,0.725101054,-2.91E-05,351.1299953,18.34544586,170.8226487,up
-0.120208964,0.036661681,0.970888257,0.034786876,0.710134864,-0.069667749,351.7862672,21.66124144,171.1847033,up
-0.211291328,0.044916626,0.949686646,0.075103983,0.496026576,0.00333065,351.8088683,26.25379575,172.6857057,up
-0.373709172,0.064582825,0.952123582,-0.011638884,0.748924792,-0.067835152,352.3385717,27.43206315,173.7064365,up
-0.485525727,0.055356707,0.853670061,0.081823498,0.511909127,-0.038513619,352.821986,27.45276375,175.7858329,up
-0.591911852,0.054142743,0.800544143,-0.128925011,0.643550575,-0.004305166,352.7425808,25.95609684,175.2461524,up
-0.670158744,0.036661681,0.714519143,-0.075474307,0.557418585,0.002108919,352.8261934,25.64035256,175.1642994,up
-0.771855056,0.033262581,0.628981531,-0.014693212,0.293830186,0.016464252,352.6786016,26.89166371,176.0187014,up
0.0237597,0.003399096,0.978930235,-0.125259817,0.757476926,-0.048287462,40.03667354,289.3254372,131.8122418,up
-0.090588681,-0.002171033,0.992820978,-0.12587069,0.713800073,-0.003694301,82.54923601,284.2629283,88.7929988,up
-0.256709069,-0.024605041,0.993308365,0.030816246,0.558945715,-0.050120059,123.8530633,289.5134996,47.96258214,up
-0.358899027,-0.015920909,0.896804452,0.097095132,0.446546495,-0.050425492,140.783504,298.5537194,31.85208518,up
-0.457386464,-0.010855165,0.869266629,0.04028466,0.531456769,-0.027518045,150.7014714,309.1944848,23.18846662,up
-0.589690328,0.003399096,0.793476939,-0.031186573,0.580936849,0.010966465,157.3579279,321.3769263,18.16671517,up
-0.695336044,0.011168458,0.688687265,-0.035768062,0.379351318,0.029903287,161.2978133,331.5269443,15.3204524,up
-0.764696836,0.021365747,0.640191615,-0.064010255,0.094633482,-0.020799261,162.9650214,337.4480865,14.15030183,up
-0.727918327,0.01505314,0.629225254,0.015207369,-0.001932284,0.01164745,163.2770245,340.3723774,13.13207004,up
-0.742975295,0.01505314,0.638729453,0.012825541,-0.052807018,0.003347316,163.7152767,343.6188004,12.29895601,up
0.157347396,-0.011820069,0.986484826,-0.008014731,-0.01493024,-0.001122378,160.6325801,339.7254936,11.23500293,up
0.09455391,0.000728378,0.999400795,-0.014123384,0.926718533,-0.059154578,162.1730883,349.8923369,10.06811121,up
-0.129835546,0.008740533,0.943594158,0.011532955,1.185114503,-0.050907895,164.2267486,4.45250299,9.002341298,up
-0.351740807,0.015781516,0.914350629,-0.045888375,0.452992529,-0.032887369,165.2035886,13.24483305,9.081493799,up
-0.412462384,0.010197288,0.893636346,-0.031227609,0.379383266,-0.009369059,166.1207191,19.36438714,8.41455827,up
-0.502557397,0.007769363,0.850014567,-7.35E-05,0.511330187,-0.078091398,167.408483,27.52735966,8.497799493,up
-0.611658692,0.006798192,0.751317382,-0.022980928,0.525074661,0.028199155,168.5903243,33.95075301,8.495276592,up
-0.692373991,0.021365747,0.698678911,-0.097811922,0.261486292,0.01262209,169.5520286,37.99243548,7.97142328,up
-0.713601828,-0.002171033,0.664073944,-0.023286361,0.31524244,-0.00020608,170.0142001,42.44174365,8.165437365,up
-0.748158872,0.00097117,0.631418526,0.010571904,0.021625211,0.00216624,169.6796575,42.39283267,7.880034495,up
0.138194174,0.035447713,1.011098146,-0.001950834,0.585453808,-0.054033361,343.2735532,62.75017734,186.0096189,up
-0.04368991,0.039575189,0.988434374,0.104339719,0.659979403,-0.053727929,342.759829,61.17262221,187.1290186,up
-0.187595099,0.061912108,0.974543691,0.038671702,0.729312599,-0.01646515,340.8896686,58.76470049,186.28743,up
-0.371240824,0.053414367,0.908745527,-0.008975785,0.610499322,-0.034791108,339.5840848,55.9775974,184.7073887,up
-0.444304168,0.043945454,0.864880145,-0.078308985,0.476108938,-0.025017263,339.4023932,57.16135456,183.4169337,up
-0.552418172,0.029863488,0.79079628,0.01118277,0.229624838,0.075775497,339.2485961,58.46538794,182.3997546,up
-0.616348624,0.052200403,0.782266855,-0.018444195,0.428766876,-0.061974611,339.3639051,57.48406734,182.4291654,up
-0.690152466,0.050015271,0.706233501,0.033479348,0.495351195,-0.034485675,339.3432028,55.52716008,182.6600668,up
-0.741000593,0.036418889,0.655544519,0.028286994,0.349354416,0.001555374,338.8868522,55.16647487,182.1225582,up
-0.77851969,0.047101758,0.57025063,0.001685545,0.163303331,-0.022494711,338.8402669,56.16920128,181.3197924,up
0.24559772,-0.010855165,0.97040087,-0.191347867,0.58082968,-0.09396594,350.3921078,335.5311786,168.8514424,up
-0.006664563,-0.078880869,0.985753715,0.089344703,1.343189478,-0.083886668,358.2593226,308.847962,164.0137287,up
-0.249303997,-0.044626791,0.911426246,0.270466238,1.109533548,-0.142224297,18.27852366,289.0644078,149.6467536,up
-0.447019339,-0.014232328,0.840997815,0.112557583,0.520964921,-0.028297931,71.03115333,279.3107201,99.61501006,up
-0.594627082,0.01505314,0.776661873,-0.030995743,0.45804581,-0.013637165,138.3657673,286.1025646,33.74249712,up
-0.634367585,0.017238274,0.733283818,0.109197833,0.346257478,0.053558011,154.0925511,296.8228197,18.88302955,up
-0.71656388,0.05754184,0.640922725,0.066819549,-0.033579271,0.041179117,159.0207511,303.0692736,15.65787741,up
-0.697063863,0.063611656,0.6801579,-0.020411234,-0.138177454,0.003907752,161.1888171,308.0323793,13.42680978,up
-0.673367679,0.061669316,0.703309119,-0.037943147,-0.077790096,0.024274645,162.9071561,312.1903321,11.18856874,up
-0.663000584,0.048558515,0.704040229,-0.109414376,-0.229284674,0.009308447,163.7356034,314.9462896,8.408265958,up
0.09382657,0.028892318,0.999157071,-0.007705316,0.692510962,0.012057341,188.8537233,49.62198343,14.87906509,up
-0.027151922,0.012868007,0.999157071,-0.253884017,0.898678005,-0.041087937,190.279416,55.7595402,14.24205347,up
-0.233506516,-0.001688581,0.954073131,-0.06665381,0.662578583,-0.128136232,188.9652057,62.40690569,12.00871053,up
-0.334215462,-0.024846269,0.906795979,-0.020228051,0.433504105,-0.072852932,186.7497109,64.59243645,9.227562517,up
-0.412462384,-0.039802272,0.886325419,-0.021755215,0.641198277,0.040157139,187.9971766,69.15486621,10.42488358,up
-0.492190301,-0.045109242,0.84952718,0.054908372,0.592023611,-0.047196589,187.2577403,73.56714793,9.626746093,up
-0.615608096,-0.018333169,0.744250119,0.122408979,0.497644961,-0.151349112,185.7996999,79.04276032,10.20926219,up
-0.707430959,-0.023157686,0.648233593,0.075312994,0.135673404,-0.0291373,181.6159085,78.94201503,6.262913358,up
-0.736804366,-0.028705882,0.608754694,-0.102448404,0.167144284,-0.032779127,177.9365229,78.96024481,1.23574824,up
-0.779260099,-0.023398912,0.601687551,-0.101886712,0.051242936,-0.025644733,177.1129523,78.33407355,0.131294298,up
0.22086823,0.075265698,0.971619308,-0.167860165,0.060100485,0.035441794,18.07542969,89.12374388,239.3708953,up
0.232263193,0.031563032,0.984291553,-0.137504399,0.027287576,0.028168697,156.2438558,85.25785681,15.5870159,up
0.06594529,0.028649524,0.961384058,0.071411505,1.208701015,-0.130350828,304.6467946,84.43943622,163.4526287,up
-0.213512838,0.020394577,0.931409299,0.069273487,0.765823662,-0.068958879,311.6896861,79.75396743,169.8763669,up
-0.35914585,0.030834658,0.905333817,0.078741893,0.671139538,-0.088812001,315.7974609,75.52626475,172.6149586,up
-0.487994075,0.039575189,0.850014567,-0.004030347,0.492766917,-0.088201135,317.8363953,73.66124744,173.0855723,up
-0.579323292,0.022336917,0.793964326,0.084239691,0.605166078,-0.072013207,320.6207288,71.01558733,174.5563989,up
-0.629184067,0.023065295,0.729872108,0.188392207,0.401442558,-0.038415618,321.3336673,70.84721634,175.104385,up
-0.736804366,0.042731494,0.623863935,0.064133137,-0.016776722,-0.016336303,321.0815309,74.09434291,173.7141819,up
-0.719525874,0.054628327,0.660418451,0.013566811,-0.010230487,-0.000347036,317.3804085,78.10272139,169.0839694,up
0.171409264,0.033990961,0.99769491,0.088397801,0.703565538,-0.07762149,329.4142626,336.4742774,181.7577305,up
0.005576256,0.061669316,0.999157071,0.13665615,0.796111643,-0.06173899,328.7998871,317.5842316,185.9911227,up
-0.170810267,0.07696525,0.970644593,0.082900017,0.638508379,-0.094114847,326.6759066,301.5717273,190.7821863,up
-0.280652136,0.070652634,0.930434585,0.005014695,0.319331318,-0.041580439,321.1233043,289.9622499,196.9352988,up
-0.360873699,0.066525161,0.916056454,-0.056071829,0.350790858,-0.071207404,303.1240927,278.9972623,214.408398,up
-0.441588968,0.033262581,0.860249877,-0.033164382,0.242667735,-0.060822692,210.8078228,275.5090778,306.5961545,up
-0.490462452,0.035690509,0.849283516,0.033114497,0.406685024,-0.086784467,172.7763696,284.7848572,345.320817,up
-0.575620711,0.022579709,0.793964326,0.020591762,0.553598106,-0.11549513,165.1088949,296.9580028,353.1475628,up
-0.682500541,0.002427926,0.69453603,0.069766417,0.524582028,-0.075178027,162.4378128,309.8311916,355.997787,up
-0.760994315,-0.003135937,0.596569896,-0.029499192,0.403630704,0.003929021,161.7223641,320.3879798,356.5964429,up
0.168499917,0.062640481,0.97381264,-0.066174492,-0.015363016,0.000699176,163.1523599,323.9227052,327.1094187,up
0.176743075,0.071138225,0.97722435,0.102269396,-0.036794748,-0.026251432,163.1695036,324.99136,330.1631656,up
0.19298695,0.077936418,1.003787279,-0.026317734,0.748167098,-0.169193894,158.7692226,331.3524313,334.0904594,up
0.008000716,0.068710297,0.962115169,-0.103897616,0.688913167,-0.114826895,154.3162124,338.857969,336.8487221,up
-0.136746958,0.05754184,0.976980627,0.135866985,0.68097192,-0.175913423,150.1254543,348.0393535,340.7899888,up
-0.281392664,0.097117029,0.928972363,0.079056516,0.462587595,-0.227531537,147.4785647,354.819366,343.1372294,up
-0.384076267,0.103429638,0.890711963,0.003003798,0.520925224,-0.142315835,145.2315281,2.231821941,344.7118151,up
-0.469728231,0.095174693,0.86731708,0.013083078,0.347134054,-0.11421603,144.1936809,7.758960855,346.0719354,up
-0.564019442,0.091775589,0.787140787,0.004530963,0.416161835,-0.060154453,142.3886121,15.78745293,346.6729443,up
-0.652139783,0.090804428,0.729872108,0.101047665,0.402111948,-0.020753644,141.8049861,22.35788317,347.8620734,up
0.118556052,0.105129182,0.976980627,-0.075701557,-0.07244207,0.00828231,147.437283,11.71767105,343.0059976,up
0.080734491,0.105614766,0.993552089,-0.148089081,0.446182549,-0.046084695,147.5068007,15.6076721,342.9828466,up
-0.04467725,0.053414367,0.976980627,-0.024694307,0.427245706,-0.039976042,146.7364647,20.0345431,343.5835191,up
-0.147114038,0.042974286,0.960652947,0.102060229,0.44099018,-0.05036075,146.0000746,24.42709752,345.2604005,up
-0.24066475,0.089104876,0.946031153,0.013790201,0.408919752,-0.031118497,145.9660876,28.63190028,346.6855998,up
-0.332981288,0.059726976,0.924098432,0.096562445,0.45595637,-0.033561956,145.7304324,33.52431014,347.4946878,up
-0.428506672,0.080849931,0.882913709,-0.03171926,0.241237238,-0.058302,145.5265103,36.91135314,347.4253519,up
-0.488734573,0.07696525,0.86317426,0.029061835,0.303850919,-0.058302,145.3614656,40.29194844,347.7645212,up
-0.581051111,0.098088197,0.790308893,0.189413965,0.414722979,-0.07571166,144.8609767,44.71685235,349.6996803,up
-0.650165081,0.138148978,0.728166163,-0.174356297,0.648684323,0.055013504,144.1460198,52.62186399,348.415889,up
0.010910066,0.055356707,0.984779,0.063270286,0.440684736,-0.051582482,355.1146649,52.5328837,200.5037038,up
-0.100955777,0.088619292,0.976736963,0.102060229,0.574769616,-0.048833586,354.0554038,53.38159959,200.4581464,up
-0.196234331,0.100516126,0.961140394,0.015928235,0.386623174,-0.032340225,353.221097,55.29308267,199.5674488,up
-0.27472809,0.098330997,0.954073131,0.014095638,0.387539476,-0.072046466,353.718637,56.91515015,199.5373003,up
-0.360133201,0.103429638,0.907283366,0.124051377,0.437935859,-0.063799784,353.0337402,58.04082338,199.6545473,up
-0.454671264,0.102944054,0.857812881,0.133519799,0.377460182,-0.054025941,352.6358454,58.81326313,200.451043,up
-0.521316886,0.109742239,0.824913859,0.022953179,0.380819947,-0.027453305,351.4337526,59.78722762,198.8869434,up
-0.617829621,0.108285487,0.759115696,-0.01797479,0.351803869,0.021415913,347.3464616,59.76544614,194.3809173,up
-0.631405592,0.093475141,0.727922499,0.130770907,0.66120708,-0.06990844,345.8840634,58.56782028,193.5538224,up
-0.795057595,0.141790852,0.581216991,0.065510213,0.069315515,0.049884718,343.2083675,61.1467153,191.1681876,up
0.083886288,0.09104722,0.970157146,-0.010254204,0.029053889,-0.020304272,351.5121103,48.62471434,192.8021601,up
0.019395674,0.102944054,1.019140244,0.018456459,0.714444697,-0.026412925,349.8500682,47.62117514,193.6041609,up
-0.155506447,0.101972878,0.962115169,0.149792492,0.551649153,-0.062453974,348.6652422,47.45634901,194.3941952,up
-0.281886309,0.129894033,0.943837881,0.096647218,0.554092586,-0.062148541,347.5386597,47.20850877,194.6116821,up
-0.367785126,0.143247619,0.885594368,0.031692907,0.168236941,-0.041140553,347.6659974,51.21926757,194.7699102,up
-0.398145914,0.13426429,0.891930461,0.089725107,0.47000435,-0.106503129,347.9848204,53.42439073,194.9939541,up
-0.476392806,0.149074629,0.833443224,-0.106977418,0.193337262,0.003694885,347.3001409,56.71295606,193.3181535,up
-0.50551939,0.138634562,0.841972589,0.015195627,0.537865281,-0.040592846,346.253131,58.63857421,191.8713555,up
-0.595367551,0.142519236,0.770569444,0.067730039,0.40591836,0.030267524,344.059503,59.73665007,190.0744284,up
-0.663247347,0.147132307,0.685031831,-0.006490089,0.610252798,-0.141996473,342.272034,57.41422182,187.8399457,up
-0.048379786,0.152230948,0.998913348,0.032910723,0.228156582,-0.055864476,343.9137382,20.81774894,197.3546314,up
-0.153531775,0.137663394,0.96357733,0.04237913,0.525647938,-0.033262461,343.4999876,23.76665238,197.3643303,up
-0.269791365,0.160485893,0.946762264,0.004810918,0.610252798,-0.014631072,341.8645261,24.90336149,196.6567227,up
-0.368278801,0.152716532,0.901922047,-0.076128729,0.35124594,-0.051282987,341.3387177,28.60254584,195.093306,up
-0.457633287,0.138391778,0.861224651,0.023136873,0.500907958,-0.107788026,341.2282701,29.9195173,193.7579767,up
-0.548962474,0.131350785,0.799813092,0.075365856,0.528702259,-0.036316786,340.2951245,30.69187168,192.9575469,up
-0.636835992,0.134992674,0.725485504,0.022526007,0.416913956,2.97E-05,339.3349536,31.87743542,192.1240316,up
-0.678304315,0.122610249,0.655300856,0.087699935,0.230148345,0.009323074,338.9211107,35.8978965,191.1023582,up
-0.781728506,0.127466097,0.553922951,0.13718003,0.41401878,-0.063675322,338.8368245,35.77878825,191.2997097,up
-0.831342459,0.157572374,0.502259195,-0.04579787,0.082391433,0.021014202,338.1267973,38.91818908,190.3007945,up
0.139648855,0.137906194,0.978199124,-0.023712235,0.065402478,-0.026459727,341.2688141,21.60807525,197.9004865,up
0.005091364,0.147375092,0.980392396,-0.108011641,0.846393704,-0.167264163,340.4150575,19.85775902,196.865385,up
-0.148348227,0.15101698,0.972106695,0.032181934,0.619457245,-0.037455302,337.4339173,20.24315586,196.8848647,up
-0.278677464,0.155387253,0.931653023,-0.009662334,0.456050813,-0.029819489,336.6919197,23.04582153,196.0620591,up
-0.346063584,0.129894033,0.912157297,0.032792799,0.304861665,-0.077161543,336.9061452,27.6514437,194.9190816,up
-0.447019339,0.140091315,0.872191012,-0.067083672,0.429478168,-0.093349472,336.9391401,29.92003298,193.3339039,up
-0.506259918,0.123581424,0.818577707,0.054783948,0.368086219,-0.077772409,337.2634358,33.33259015,192.6326211,up
-0.576854885,0.133535907,0.792745829,0.07310991,0.372973144,-0.022489104,336.993225,35.77221078,191.9814992,up
-0.6662094,0.155872837,0.71500659,0.109150961,0.430699915,-0.02096194,335.9609665,35.98725928,191.7191516,up
-0.69582969,0.168983638,0.694292307,0.033098236,0.239499062,-0.016075019,335.5096532,38.7681708,191.3445567,up
0.078310028,0.163884997,0.979905009,-0.076466687,0.145984694,-0.080068901,347.8846361,351.4088079,180.4193276,up
-0.07158234,0.138391778,0.971375644,0.003556661,0.88757509,-0.225760266,352.3322358,330.323593,178.8086015,up
-0.249797672,0.136692226,0.93555218,-0.011714973,0.585196793,-0.126494661,356.1697827,313.2095842,177.7997005,up
-0.372721851,0.152716532,0.88705653,-0.091127455,0.554653525,-0.155510753,4.039336309,297.549907,170.1645599,up
-0.46874088,0.130379617,0.859275103,0.062810592,0.437672853,-0.07884717,19.05369549,285.2030492,156.355625,up
-0.588949859,0.122610249,0.769838333,0.021882616,0.51006037,-0.014400887,88.44422885,277.195875,88.08912048,up
-0.663741052,0.130622417,0.711838484,0.025242373,0.278542459,-0.011957427,142.387451,284.5020327,34.82345311,up
-0.693361342,0.114840887,0.666754603,0.068002947,0.317026973,0.014004347,156.356308,294.5881731,21.38544353,up
-0.698298037,0.137663394,0.664317608,-0.041040387,-0.062738836,0.006743392,158.2607423,299.721552,18.87719657,up
-0.71557653,0.120910697,0.647015154,0.017054029,-0.075458296,0.007560307,159.9436326,305.2128158,17.12311008,up
0.033215091,0.097602613,0.961627781,-0.496683627,0.428810984,-0.186694846,127.2467111,24.87587339,329.9706123,up
-0.081208929,0.014081969,0.991358757,0.048819028,0.605045557,-0.088040106,124.5377488,30.49327368,330.6650547,up
-0.197715357,0.05487112,0.938720286,-0.038229272,0.517691851,0.015196122,124.4681628,35.74605798,330.9620689,up
-0.273740739,0.03132024,0.954560518,0.07630796,0.396740556,0.071701154,125.1163751,38.42193827,332.5085176,up
-0.388025641,0.078422002,0.892905235,0.078140557,0.372916788,0.024664534,125.493866,42.72368703,335.2017398,up
-0.458373785,0.07817921,0.875115335,-0.072437726,0.384523243,-0.051999055,125.2736607,46.48686513,334.4675747,up
-0.537114382,0.075022906,0.830518842,0.097688243,0.498755068,-0.094148755,122.7419828,51.47928262,334.0926434,up
-0.591665089,0.120667912,0.764477015,0.050346188,0.195765883,0.002978818,125.1894445,53.89967627,336.2179575,up
-0.63930434,0.096388653,0.753998041,0.129147798,0.664910376,-0.034894828,122.9160706,60.61624183,335.6899924,up
-0.720513284,0.070409842,0.621914387,0.067340896,0.016769802,0.026708866,125.2657104,61.68340424,338.1447368,up
0.178197742,0.066039577,0.998669684,-0.024738565,0.077050477,-0.019206073,108.8708863,65.04742267,325.9086544,up
0.088007867,0.082549475,1.007199049,0.050703291,0.840632021,-0.218959019,102.3979911,68.08750572,321.2307773,up
-0.074050695,0.095417485,0.976736963,0.206473947,0.531534195,-0.030201647,100.8043782,70.87669543,321.6046073,up
-0.164392546,0.104643598,0.964795828,-0.001220252,0.411193788,-0.039975494,105.2480925,72.41435543,326.2354653,up
-0.215981185,0.112898543,0.954073131,0.146609142,0.369654924,-0.031423379,109.5962455,73.36730342,330.466122,up
-0.287563533,0.127466097,0.936770737,-0.014048424,0.382788539,-0.080292597,115.6611667,72.87680022,336.3538322,up
-0.350259781,0.119939536,0.907283366,0.029933874,0.618582487,-0.098313123,116.4212984,74.46332339,336.3983035,up
-0.441095322,0.129651234,0.869754016,0.017411139,0.479305238,-0.08273606,118.4163693,75.90674044,338.0214741,up
-0.524032056,0.135721043,0.824913859,0.022603493,0.482359588,-0.068686157,118.749423,78.33807604,337.7031838,up
-0.628443539,0.118239984,0.744250119,0.033904497,0.219076633,-0.04577871,121.8413814,79.42571537,339.8210701,up
0.164620772,0.090076044,0.982342005,-0.115452051,0.389813483,0.083419286,286.9900931,50.79762291,132.7746837,up
0.007273377,0.027921148,0.974299967,-0.070858888,0.526036382,-0.063188374,289.5997376,51.04195244,130.4909144,up
-0.092316531,0.042003114,0.991358757,0.045816373,0.455481499,-0.09586966,291.202339,53.09233083,130.7628925,up
-0.210550815,0.058027428,0.962602496,0.094991028,0.439599007,-0.095564231,294.3448749,54.48521131,133.2753366,up
-0.324588895,0.066767953,0.927266538,0.169211149,0.625912905,-0.25988698,301.0342324,56.33216276,139.3991886,up
-0.505272567,0.094203517,0.867073357,0.125839725,0.530007064,-0.232398048,305.3819142,58.23656294,143.7369734,up
-0.530202985,0.096631445,0.82223314,0.101405114,0.359881103,-0.128245533,310.1378739,59.34445377,147.8116047,up
-0.620791674,0.110713415,0.744737566,0.019854601,0.410277486,-0.086095817,312.8628326,60.14760889,150.2946107,up
-0.638563812,0.07016705,0.666754603,-0.010352455,0.200266778,-0.017789887,311.886901,62.20853651,148.6181545,up
-0.717798054,0.05681346,0.648233593,0.030270085,0.21309495,-0.052609205,313.0594669,64.09187921,148.9650734,up
0.04461005,0.059241388,0.99842602,-0.035092499,0.510586321,-0.20990701,5.656667475,346.9710684,176.3502115,up
-0.063189924,0.019180615,0.967476487,0.153053999,0.502645075,-0.165924713,9.864834534,332.3713469,173.9632243,up
-0.174019143,0.049772479,0.969669759,0.106322803,0.547238231,-0.171727926,15.16034423,317.0760655,170.9282024,up
-0.305088878,0.093717933,0.926535428,0.092578344,0.400630593,-0.143322691,23.54748527,303.2345471,165.1502858,up
-0.400614232,0.068710297,0.883157432,0.038211331,0.31052798,-0.026952866,35.78826855,291.9507911,153.482178,up
-0.453930765,0.082549475,0.863905311,0.035157003,0.329159349,-0.090177417,67.87055159,282.7470839,121.6174878,up
-0.536127031,0.068467505,0.815165937,-0.007603563,0.475461602,-0.056579832,125.7377584,284.195166,64.05416973,up
-0.655595541,0.092503972,0.732796431,0.039127626,0.373141646,-0.075822085,149.8161423,294.0386092,40.72708613,up
-0.727424681,0.063368864,0.674552858,0.090134881,0.301059574,-0.067880832,159.5573581,303.8063842,31.73361554,up
-0.73088038,0.042974286,0.602905989,-0.107271567,0.103330314,0.008431973,162.9499131,310.4568369,26.20773808,up
0.103524402,0.068710297,0.968451262,0.0047599,0.008895521,-0.026519764,163.6150779,327.4631303,9.097897352,up
0.090189874,0.076236866,0.993308365,-0.056021191,0.270345837,-0.051259805,163.9294715,333.1594739,8.115407937,up
-0.014069632,0.040546361,1.002812624,-0.374587417,0.914503217,-0.115095221,163.8692155,345.8245178,3.454492824,up
-0.186360925,0.012139629,0.9669891,0.222227931,0.555314481,-0.092798643,163.9503992,354.7963781,5.456447736,up
-0.292500228,0.015781516,0.940182447,-0.04533105,0.437417477,-0.089744315,164.0429756,2.706133969,5.647478736,up
-0.371487647,0.024036465,0.913619518,0.038357485,0.319215059,-0.055841297,164.1788553,7.718363918,5.576700474,up
-0.444057345,0.01602431,0.886081696,0.137012228,0.674127758,-0.089438885,164.4419542,15.73879124,5.977457128,up
-0.624741018,0.028892318,0.809804618,0.122962326,0.596547902,-0.090049751,164.7810731,23.93758128,7.30078152,up
-0.669911981,0.034962133,0.706233501,0.032554265,0.410233974,0.006161528,165.6330573,30.81639969,8.819325525,up
-0.697063863,0.034476548,0.643847108,0.076900199,0.081314355,-0.018433698,165.4847465,31.39075712,8.835596743,up
0.189350262,0.047101758,1.010610819,-0.024808865,1.063891053,-0.052031286,339.5912582,37.52413722,172.3266836,up
-0.031841796,0.053899955,0.975031078,0.226867616,0.814352632,-0.28660354,342.939072,38.28003768,175.2188316,up
-0.180930525,0.097845405,0.935308516,0.046967797,0.551069736,-0.198028073,344.8346236,40.36085139,177.3915831,up
-0.310766071,0.111441791,0.936527014,0.167613685,0.652167916,-0.315008789,348.0387567,41.42822554,181.5961009,up
-0.407525659,0.095903061,0.85293895,0.083008848,0.304280192,-0.165957645,350.1401694,44.10377115,183.2451135,up
-0.443069994,0.111198999,0.873165786,-0.034277275,0.39926973,-0.150380582,350.8243777,47.30259804,183.7269424,up
-0.509221971,0.096874237,0.823695302,-0.011064399,0.393771946,-0.019044563,350.6319635,49.9294683,183.5539063,up
-0.620544851,0.096631445,0.739619911,0.095226161,0.431034714,-0.042257443,351.6540732,49.35395998,185.4535322,up
-0.728411973,0.128194481,0.659443676,-0.008571014,-0.033460174,0.020139892,349.9401243,53.51406086,184.0851858,up
-0.696816981,0.091290005,0.657737792,-0.002521604,-0.091079928,0.0561455,348.9011484,60.1631544,183.6173178,up
0.065217957,0.026949978,0.965039551,-0.012826905,-0.179524392,0.014558902,192.290292,77.40615137,18.40806332,up
0.056247454,0.04418825,0.996476471,0.040012941,0.444169015,-0.102116361,186.1070994,77.52957289,12.90307685,up
-0.057512704,0.033019789,0.971863031,0.00763708,0.376057535,-0.169311538,174.9474955,77.96128866,1.94905958,up
-0.131316558,0.006069814,0.979417682,-0.05192228,0.537631452,-0.062715553,170.5485122,78.31446408,357.2255648,up
-0.215487525,0.01044008,0.960409284,0.08246807,0.660415351,-0.043778729,168.1861956,79.70938678,355.5134618,up
-0.330266088,0.007040984,0.900216103,0.109040707,0.469519913,-0.057217766,162.4592186,81.21561425,350.3441496,up
-0.411721855,0.055842295,0.886569142,0.12309061,0.465243876,-0.103643522,153.7212893,82.45610638,343.9775544,up
-0.493671268,0.025250427,0.865123808,0.330784798,0.616433024,-0.133270487,132.1170048,84.47050675,324.1328667,up
-0.644241035,0.077208042,0.737426698,-0.081243813,0.590165854,-0.074321993,63.77888579,86.22389144,256.036912,up
-0.698051214,0.06021256,0.684057057,0.012520421,-0.018303595,-0.006414849,113.6978902,85.84225462,305.6919877,up
0.072006434,0.074051738,0.983316779,-0.021077165,-0.212558731,0.1887566,192.7208535,41.93411716,27.74865437,up
0.12316253,0.11896836,0.990627706,0.227544993,0.037896007,0.519540131,199.1935506,35.00320319,32.83514406,up
0.010182728,0.118725568,0.964552164,-0.235796303,0.438318193,0.15393728,205.537321,37.96235192,33.35577523,up
-0.111816548,0.058513008,0.982829392,-0.09835162,0.707098842,-0.004887686,209.6439176,44.18975982,32.9717171,up
-0.285095185,0.053899955,0.922879934,0.207081005,0.552244544,-0.121257514,211.0706211,50.06647165,35.37170556,up
-0.412956059,0.081578307,0.87072885,0.321312815,0.55346626,-0.138667166,212.1512937,55.85686015,40.21362325,up
-0.52255106,0.121153489,0.820771039,-0.03665423,0.474359244,-0.079107806,214.6130578,60.82988331,41.87290159,up
-0.595120788,0.100516126,0.755703926,0.252285033,0.224515349,-0.01832672,214.134726,62.20670602,43.21556311,up
-0.712367713,0.156115636,0.675040305,0.038787629,0.610887587,-0.099266365,221.4257617,67.2493937,49.58274741,up
-0.744456291,0.141062483,0.612166464,-0.059093066,-0.069958217,0.025986508,217.2634444,66.56363588,45.36282432,up
0.083643839,0.010925665,0.991115034,-0.071921229,0.247386292,0.051948283,324.1365925,57.22812649,141.1736581,up
-0.064424105,-0.003859614,0.936770737,-0.038018212,1.01463306,-0.083052941,333.984098,52.96226696,147.2937398,up
-0.230050817,-0.016162137,0.959190845,0.033453017,0.630704224,-0.028685931,337.9540191,53.20957786,149.9476918,up
-0.33224079,-0.005065744,0.909476638,0.076213591,0.310916275,-0.008221947,337.8828605,56.46645794,150.8102627,up
-0.384569943,-0.000482452,0.90557754,0.257029712,0.41170904,-0.002724159,339.5123643,58.8701108,153.9829265,up
-0.436899096,0.036661681,0.883401036,0.10706228,0.272126317,0.011020308,338.1051678,62.04130616,154.6071512,up
-0.53242451,0.024036465,0.754729152,0.087209165,0.355814874,0.00766055,338.0095998,61.87463588,155.5152385,up
-0.621779025,0.066767953,0.753754318,0.21640715,0.541823328,-0.035710882,341.6393655,60.02030782,161.8058154,up
-0.704715788,0.076236866,0.662368,0.109811172,0.823126733,-0.039376073,345.8669034,54.76428943,167.755921,up
-0.785184205,0.090318836,0.575368285,-0.000258356,-0.010731077,0.003660307,344.7380055,58.03846013,168.2218629,up
0.084856071,0.067739129,1.00451839,-0.019195179,0.627928555,-0.126453996,14.64082467,345.6126573,177.7791827,up
-0.12884821,0.064582825,0.96016556,-0.214672059,0.818518519,-0.156080961,19.7301523,324.2138386,170.9287898,up
-0.253500223,0.02646439,0.937989175,0.043723941,0.565009415,-0.084915154,26.50568459,308.723294,164.8333104,up
-0.373215497,0.049529687,0.918006003,-0.019806044,0.574172378,-0.051928431,37.56963311,295.6571182,153.5912288,up
-0.427025676,0.029620694,0.869754016,-0.003312685,0.401908398,-0.021385169,58.56853745,286.9731883,132.3021576,up
-0.495399117,0.03132024,0.844409585,-0.05767969,0.332880616,-0.033602472,96.52843392,283.8474752,94.17425896,up
-0.565006793,0.01602431,0.801518917,0.015318707,0.347541392,-0.064145729,132.5761711,287.6454019,57.58660897,up
-0.641032219,0.008740533,0.732552767,-0.081198007,0.740022302,0.015877612,158.412837,300.0125727,30.24262281,up
-0.766671538,0.027678354,0.636536121,0.037309855,0.558289886,0.042755682,168.8446122,312.7907467,21.08363113,up
-0.791848779,0.032291412,0.581460714,-0.02681965,-0.12385907,0.012872411,170.3286894,318.4517988,19.44616158,up
0.049458966,0.124309801,0.99160248,-0.074772574,0.574665308,-0.107468046,167.3085846,54.16045289,355.7665109,up
-0.027398758,0.128194481,1.009148717,-0.230543211,0.806488693,-0.051573873,166.1240796,57.9631573,353.9218514,up
-0.201664731,0.078422002,0.954560518,-0.208552063,0.399041563,-0.053711902,164.31285,60.63488824,349.5108776,up
-0.273247063,0.037875641,0.948955536,-0.015518645,0.643082261,-0.049130414,160.7202115,64.68999204,346.1918702,up
-0.388519317,0.034962133,0.914106905,-0.045145608,0.303746611,-0.011562198,159.9930012,65.99953738,345.8018416,up
-0.454918087,0.013110799,0.871703684,-0.06530416,0.370025486,-0.005148114,158.8838878,67.7309357,344.5108146,up
-0.517614305,0.014810347,0.837098718,-0.056141183,0.517549455,-0.017670851,156.2003611,71.59915869,341.7820396,up
-0.624987841,0.008012155,0.748636723,0.012275726,0.273814201,0.013788709,154.263579,74.22684858,340.2555333,up
-0.705703139,0.025007635,0.6801579,0.031517982,0.652245224,0.004014865,146.088307,80.25082954,333.6067113,up
-0.805177927,0.05754184,0.560502708,0.006986067,-0.113280594,-0.009248847,151.9117127,79.31201321,340.1070092,up
0.024244592,0.013596384,0.973081529,0.012789287,0.428862333,-0.226106018,16.16729511,31.62470476,205.7590562,up
-0.107620336,-0.003859614,0.971863031,-0.067234062,0.67351383,-0.227633178,16.90601935,30.32901105,205.4737456,up
-0.213019162,0.03204862,0.961384058,0.279737413,0.497279227,-0.220913649,18.63584501,31.83741734,209.953694,up
-0.376918018,0.018695027,0.877796054,0.084565952,0.437414408,-0.146998972,19.50484656,32.09606295,212.3498336,up
-0.457880139,0.037632849,0.86317426,0.026533756,0.331429303,-0.012914039,20.39787331,34.46198925,213.9903358,up
-0.521070004,0.02840673,0.837098718,-0.062958002,0.398013592,-0.095686279,20.5820596,35.95516422,214.2595682,up
-0.588456154,0.001213963,0.784216464,-0.024778929,0.497890055,-0.090493925,20.36526769,37.06449964,214.4235064,up
-0.704222143,-0.007960455,0.661149561,-0.051046133,0.44657743,0.019767251,17.06076241,37.38678895,212.2273273,up
-0.712367713,-0.015920909,0.640191615,-0.00278778,0.423975408,0.028013933,16.39401983,39.70655683,212.1470999,up
-0.811101913,-0.01061394,0.51151973,0.047066502,-0.013782545,0.026575496,17.84334499,44.79842529,213.6911052,up
0.030063294,0.040060773,1.010123372,0.011330888,0.57875675,-0.183867589,2.532775444,326.0943911,213.5614409,up
-0.108360849,0.038846813,0.969913483,0.039125256,0.506063759,-0.222352087,357.0842292,310.5858968,215.9393029,up
-0.198949531,0.03034907,0.963089943,0.141139746,0.473077059,-0.066886887,348.3916837,297.4649736,223.2988591,up
-0.320886344,0.084977403,0.926779091,0.007971127,0.4013004,0.001530021,323.793659,286.7728042,246.1544616,up
-0.384076267,0.069681473,0.895829618,-0.017379781,0.277294755,0.02352117,287.9378296,283.0052378,279.8542939,up
-0.4292472,0.074780107,0.884619534,0.023853622,0.38327986,-0.066276021,244.7259275,285.5405766,322.0155217,up
-0.533905506,0.066039577,0.825888634,-0.031124249,0.658780098,-0.070552081,219.2427103,296.6907375,345.4691055,up
-0.631652415,0.070895426,0.74230057,-0.161849409,0.659390926,0.036960207,210.3611011,308.5094578,352.1868006,up
-0.717304409,0.047101758,0.654569745,-0.16490373,0.31364122,0.141418159,206.6579091,317.7319002,353.3271391,up
-0.773582935,0.015781516,0.595107675,-0.076328278,0.411379665,0.254122823,206.2382077,328.0750333,351.0549794,up
0.000484892,0.036661681,0.977955461,-0.065027267,0.397940636,0.015579922,173.5165436,56.91688843,326.2320843,up
-0.050107639,0.040060773,1.015241027,0.179013401,0.87166661,-0.179286093,164.5668237,59.83251177,321.6504822,up
-0.206601441,0.087890908,0.950661421,-0.017379781,0.520419121,-0.17531547,156.3800497,60.94110611,317.6334533,up
-0.322614193,0.03034907,0.93969506,0.200088248,0.536912501,-0.167374223,150.9122237,61.40407,316.2836167,up
-0.400367409,0.072352186,0.884619534,0.066919625,0.407409042,-0.113007218,147.884114,61.63245786,316.2603599,up
-0.481576353,0.079878755,0.855132222,0.076082602,0.654198587,-0.119726732,138.4601469,64.62699038,310.4012153,up
-0.600551128,0.071381018,0.76009047,-0.041814391,0.458721727,-0.076355301,131.5042549,66.43218206,305.4953022,up
-0.654855013,0.052928779,0.715981305,-0.056169726,0.504842043,-0.032678433,126.7845532,67.89447092,302.1111483,up
-0.718785465,0.042488702,0.641410112,0.023548193,0.388166785,-0.033289298,123.1074935,69.23658943,299.9461696,up
-0.783950031,0.021608539,0.545880914,-0.080298901,0.254081845,0.043068856,118.4530884,71.23080659,294.5724568,up
0.032245304,0.021365747,0.999888182,-0.068387032,0.510950685,0.001530021,12.54519201,13.84274098,198.7513231,up
-0.086639315,0.024764843,0.979173958,0.188481808,0.599220753,-0.089183472,13.30251399,15.19070784,202.5967196,up
-0.210797638,0.048801307,0.96284622,0.116705135,0.503314853,-0.106287695,13.34908478,17.60012366,204.9674646,up
-0.30977875,0.066767953,0.934821069,0.034849197,0.468800992,-0.095292121,13.736739,20.32059825,206.5781325,up
-0.428753525,0.073323362,0.88437587,0.029962279,0.573258936,-0.138358116,13.98794311,21.5217963,208.6431309,up
-0.582532108,0.039332394,0.764477015,0.052258857,0.772095621,-0.036954492,11.41684476,19.57640816,209.2634077,up
-0.723228455,0.050500855,0.670653701,-0.060140349,0.71284169,-0.065359727,8.117063404,16.77123581,207.4264693,up
-0.779506981,0.050743647,0.603149712,-0.044114619,-0.180517316,-0.005702877,9.753257418,23.92779703,208.5393394,up
-0.789133549,0.042974286,0.602418661,-0.143685654,-1.047945976,0.168699145,13.60106498,37.29020666,209.5593598,up
-0.63930434,0.128437281,0.736208141,0.155943751,-1.389114261,0.167477414,27.0509181,56.5199315,221.1779078,up
0.157832295,0.025493219,0.983316779,-0.024681799,-0.089843854,0.010307174,80.53830537,70.89766411,259.3985877,up
0.154195607,0.02743556,0.956997514,0.013407975,-0.050508395,0.001437985,99.81926004,71.41393079,279.0353406,up
0.159529418,0.025736013,0.976005912,0.060711015,0.085729882,-0.091773167,113.0138126,69.92769529,293.6276162,up
0.16437833,0.026707184,0.978199124,-0.090669498,0.0726083,0.035758689,127.2011401,67.58483795,307.3069928,up
0.076128013,0.017481066,0.989896595,-0.0448546,0.763496876,-0.057703696,114.9532585,71.3021889,296.4575412,up
-0.09379755,0.012139629,1.002812624,0.050134946,0.91438061,-0.083360039,93.74377945,73.49895532,281.8348234,up
-0.273987561,0.021365747,0.943350494,0.112748623,1.069845796,-0.101685993,63.27961262,73.0277474,254.8014742,up
-0.565500498,0.043702662,0.820527315,0.111221462,0.799232543,-0.07297533,45.30418373,70.99323895,239.3207617,up
-0.617089152,0.038604021,0.744006515,0.071209803,0.633382618,-0.023495242,33.7742575,69.09335353,229.5014495,up
-0.72816515,0.050258063,0.643847108,0.013702363,0.143370375,0.014615837,33.55510747,70.59542141,229.8641872,up
0.156620055,0.027678354,0.976005912,0.077340625,0.129512057,-0.05024641,19.49688256,56.90552299,231.2146522,up
0.147164658,0.016509894,1.011829376,0.080700383,0.337511659,-0.025200933,22.77341993,60.84607769,234.902162,up
0.055035222,0.057784636,0.990627706,0.150339022,0.554063439,-0.089647219,23.08741739,63.20229488,236.5242637,up
-0.116506428,0.067739129,0.960409284,0.208982095,0.407150298,-0.084149428,21.54620569,64.52897716,237.057155,up
-0.177968502,0.111927383,0.978442848,0.205927759,0.486562788,-0.149512008,22.02132389,65.5875472,239.5845846,up
-0.30706355,0.109499447,0.928972363,-0.053384535,0.748013139,-0.130575195,16.05984429,65.0908217,232.5593252,up
-0.427272499,0.086919747,0.866829693,0.064817891,0.518022358,-0.138516441,13.33476785,65.36363311,228.8891504,up
-0.568462491,0.078422002,0.763745964,0.051989719,0.415091544,-0.037112806,8.480482402,65.41475708,224.0293888,up
-0.631652415,0.084734611,0.741813183,-0.003489155,-0.076012805,0.001797884,11.93949083,68.85330653,226.8915522,up
-0.628443539,0.097602613,0.771300554,0.012795404,0.011830619,-0.001535463,16.04046021,71.90816328,230.0852941,up
0.167287678,0.036418889,1.021820903,0.100149125,0.682866096,-0.043990597,321.4885521,355.4886673,203.4545641,up
0.00654604,0.065311208,0.995501637,0.043644097,0.645603299,-0.016196229,316.2369153,339.7548036,208.7714292,up
-0.163898885,0.073808946,0.963089943,0.018293191,0.604980826,-0.071479537,308.8334205,325.2218276,216.1015882,up
-0.242639437,0.088619292,0.946274877,0.109617546,0.348417372,-0.149364859,300.7489627,314.7921458,225.188868,up
-0.336930662,0.091532797,0.916300178,0.046698425,0.308711141,-0.101411931,288.4346986,305.125345,237.6913791,up
-0.379139543,0.111441791,0.918249726,0.036924582,0.200893417,-0.047350354,273.0477508,299.3506044,253.8371676,up
-0.432209194,0.09104722,0.876090169,0.043733791,0.08907754,-0.039826699,255.2618426,296.7750084,271.7695219,up
-0.416164905,0.095174693,0.858787715,0.049424682,0.15399763,-0.014638277,240.8264086,296.8592178,286.4735327,up
-0.524772584,0.083520643,0.821745753,0.057671357,0.582825065,-0.090996429,215.4281179,301.4712347,311.3776694,up
-0.639797986,0.092018381,0.721099019,-0.013494443,0.404757798,-0.050373893,199.752301,309.943596,325.547351,up
0.169469699,0.050015271,0.969182372,-0.014215576,-0.039110005,0.008548724,207.0097732,306.866367,318.6259925,up
0.178197742,0.05754184,0.982829392,0.015814763,0.148842111,0.00483736,202.6883535,308.5819569,323.4043826,up
0.103524402,0.074294522,0.986241162,0.060407925,0.467713773,-0.025705902,194.1080786,315.3018453,332.5270855,up
0.013092079,0.093717933,0.992820978,0.087896869,0.403267473,-0.049835078,188.5373626,321.5656171,338.7573399,up
-0.080962092,0.101487294,0.975518465,0.127603114,0.486650586,-0.057165463,184.6178449,328.0363539,343.3216548,up
-0.136006445,0.132564738,0.984535277,0.1198093,0.217609018,-0.050688945,182.8287452,331.8075848,346.4975817,up
-0.224620447,0.138391778,0.946274877,0.049865223,0.351999372,-0.038777072,180.5134203,337.9598487,349.3223149,up
-0.290278733,0.145675555,0.938476563,0.051392384,0.37276879,-0.105055951,178.4175048,343.1349003,351.5167924,up
-0.344582587,0.142276451,0.907283366,0.027568638,0.181567967,-0.039998803,177.1285935,347.4738753,353.2956114,up
-0.357911706,0.154416084,0.916543841,-0.012393888,-0.041583568,0.003785834,176.6559854,349.8230608,354.7946104,up
0.129951015,0.055842295,0.993064702,-0.020029705,0.087614432,-0.03042262,173.5127733,348.2519747,345.6328747,up
0.065217957,0.047101758,0.99160248,0.013567884,0.318826914,-0.038974732,172.0470557,352.7804141,346.9257014,up
-0.040481046,0.063611656,0.986728549,0.080152199,0.623648703,-0.093341738,169.5682024,0.539489055,348.6834369,up
-0.20289889,0.07817921,0.937745452,0.062131669,0.32157582,-0.051802903,168.0522966,5.888629664,350.2327202,up
-0.265595168,0.067739129,0.943837881,0.037086193,0.346621275,-0.050886605,166.9691515,10.62704693,350.7964132,up
-0.363095254,0.071866602,0.897291839,0.029689483,0.180402532,-0.062292308,166.0661186,13.04543592,351.0812397,up
-0.396418065,0.066525161,0.885106981,0.102048635,0.088001758,-0.047005396,165.5220394,15.16566153,352.356232,up
-0.420361102,0.080121547,0.898997664,0.000794273,0.098580033,-0.031422205,165.2390373,16.73292869,353.1623851,up
-0.427519351,0.067253545,0.865123808,0.040540043,0.09494935,-0.003198105,165.2188063,18.03645151,353.8586529,up
-0.452943414,0.072109394,0.86658597,-0.030338403,-0.041781686,0.013071069,165.4991309,19.17724678,354.4843542,up
0.161226541,0.059241388,0.980392396,-0.011401579,0.135063797,-0.047404591,142.5327154,39.30899884,338.5972846,up
0.097948149,0.056327876,1.011585593,0.045408886,0.862298846,-0.074893534,141.5048813,43.2043411,339.2016915,up
-0.111076042,0.080849931,0.983804166,0.100081325,0.786246121,-0.20042634,137.527184,50.07453469,337.8059372,up
-0.266582519,0.086191364,0.947249651,0.131235451,0.789605916,-0.14239414,133.1664497,55.40677458,335.5126261,up
-0.432949722,0.096145861,0.885838091,0.163916737,0.57122159,-0.166828752,128.4618427,60.16760768,333.4855232,up
-0.539335907,0.101487294,0.801518917,0.027693797,0.542510927,-0.063592523,123.0440547,65.10248766,329.8758229,up
-0.625481486,0.098573789,0.753266931,0.06220768,0.428279102,-0.084056512,118.8944689,69.64488448,326.4689792,up
-0.690646112,0.089347668,0.659443676,-0.077680461,0.287474662,0.024372075,117.976751,72.36696075,324.991681,up
-0.788146257,0.090804428,0.593889236,-0.031815387,0.021449877,0.018404171,125.8034785,72.9403483,330.2556224,up
-0.695336044,0.094446316,0.615090847,-0.027076486,-0.020351928,-0.068991937,132.8324261,71.43386811,336.2962127,up
0.256750226,0.06142652,0.970888257,0.004918333,0.041660659,-0.004464803,139.7942467,67.73954174,342.7887071,up
0.18838048,0.063611656,0.957728624,0.00888896,0.470793486,-0.046309073,139.2721471,68.04178444,342.5821246,up
0.040730912,0.06069814,0.986241162,0.046762601,0.47109893,-0.037451528,138.1445785,70.10547145,342.1616103,up
-0.086886145,0.080364339,0.975274801,-0.000274021,0.465601146,-0.08387728,135.6532123,72.68476262,340.7805119,up
-0.20067738,0.073566154,0.962358892,-0.005466375,0.509277999,-0.056693781,133.7960019,75.16760468,339.0019153,up
-0.32236734,0.072352186,0.928972363,0.007667229,0.415510178,-0.034091767,133.0735045,77.27236846,338.7510288,up
-0.410981357,0.074780107,0.886812806,-0.047616076,0.217589855,0.018442644,135.4458478,78.73846173,340.6505454,up
-0.500582695,0.044916626,0.831493676,-0.070693448,0.257032245,-0.015701037,139.3878641,78.19765418,343.6244832,up
-0.546000421,0.054385535,0.818577707,-0.054505523,0.248480141,0.014231359,142.4505073,78.56282342,346.3057499,up
-0.623753667,0.055842295,0.75935936,-0.243262887,0.739921272,0.200545251,160.5948092,85.99029214,2.609643033,up
0.208745927,-0.003135937,0.978686571,0.048425268,0.128750548,-0.082896218,0.922963356,60.73894618,218.3050482,up
0.132860363,0.025007635,0.98063612,0.178234145,0.547193289,-0.109468855,359.3530791,61.84644086,217.6182591,up
0.020365456,0.04224591,0.980392396,0.126616031,0.287270069,-0.053269252,0.50491357,65.0118852,219.3159982,up
-0.066151954,0.074051738,0.975518465,0.154410392,0.270776719,-0.078009292,1.601611165,67.68357517,221.0908092,up
-0.141189992,0.107314318,0.975274801,0.116231322,0.326365441,-0.082590781,2.65030507,69.89226027,222.7777156,up
-0.199690044,0.126494929,0.946031153,0.110122666,0.22740528,-0.061515935,5.639241101,73.18660394,225.3906318,up
-0.28015846,0.135478258,0.934090078,0.006581001,0.315980732,-0.077398427,3.913245041,74.27856677,222.5858283,up
-0.379880071,0.127223313,0.90143466,-0.005025439,0.355076104,-0.075260401,359.7224551,74.48602011,217.5818405,up
-0.439861119,0.143490404,0.871216238,-0.023656828,0.249701858,-0.025169451,359.5963607,76.49518855,216.7281351,up
-0.516873837,0.117997192,0.822476864,0.041400317,0.393255204,-0.02761291,354.7625858,76.77414714,211.9184389,up
0.110797785,0.081578307,0.982098341,0.033789832,0.107538939,-0.003168259,332.5071567,58.52420953,193.0769659,up
0.061338816,0.103429638,0.976736963,0.05761357,0.144496292,-0.035544116,331.4595064,64.23427499,191.5751029,up
-0.012588618,0.098088197,0.990140319,0.049977761,0.397699922,-0.038903873,328.8150433,66.21673057,188.0786061,up
-0.105892494,0.116783224,0.974056304,0.023099687,0.279802948,-0.052037477,327.1454309,68.13077497,186.0829751,up
-0.186607748,0.12163908,0.958703399,0.059140738,0.253230304,-0.045623392,324.8168589,70.15889719,182.2194786,up
-0.269297689,0.115326472,0.939451396,0.030124638,0.258728087,-0.033711519,322.4964695,72.31741455,178.9963087,up
-0.340139538,0.120182328,0.914837956,-0.004389249,0.215356663,-0.019050755,319.3439137,74.21985446,174.7829289,up
-0.384076267,0.110470623,0.901190937,0.03714959,0.273388863,-0.030046329,315.0520755,76.47195225,169.5923677,up
-0.465532005,0.099059373,0.846846521,0.021877956,0.267280191,-0.019967053,311.8526032,77.33528133,165.1163125,up
-0.536867499,0.099544957,0.820771039,-0.135419846,0.574239969,0.045395527,311.4731042,74.55910996,161.6663566,up
0.077582695,0.101487294,0.987215936,-0.033495639,-0.033138379,0.005335629,273.1403477,84.45302146,120.8612492,up
0.023032364,0.101244502,0.97722435,-0.066176929,0.212734878,-0.015128356,252.3163099,84.10880725,98.6093535,up
-0.055784855,0.10100171,0.962358892,0.049887467,0.278402895,-0.078658342,239.5941468,83.98972973,85.43645259,up
-0.123170987,0.108042702,0.979661286,-0.034106504,0.304059237,-0.037424941,230.0617572,83.539832,75.20767057,up
-0.169329256,0.1177544,0.971131921,0.036143001,0.252441108,-0.029178258,217.3493682,82.36986841,62.09959499,up
-0.274974912,0.100758918,0.944325268,-0.040520586,0.303448349,-0.069800794,215.0648611,82.63358201,58.62303553,up
-0.358405352,0.097359821,0.900947213,-0.062206306,0.244805306,-0.034676045,212.3598877,82.68002047,54.94328136,up
-0.418633252,0.084977403,0.874871671,-0.004479539,0.227701068,-0.045671619,206.1105378,81.68416523,47.85742797,up
-0.468000382,0.079878755,0.858056605,-0.014558814,0.257328033,-0.005049081,205.4774339,81.52608733,46.05166255,up
-0.55488652,0.067253545,0.788115621,0.023620259,0.419207335,0.093300223,218.4195495,81.95733864,57.85305465,up
0.080492049,0.090804428,0.984779,-0.00677805,-0.06160954,0.008481267,180.0421509,64.20836126,20.04763145,up
0.092129454,0.088862084,1.022552013,0.071718141,0.35683313,-0.037639059,178.8632293,62.46038607,19.01980409,up
-0.094044387,0.108528279,0.94578743,0.003912095,0.50741142,-0.090784341,181.6450461,66.41591938,21.2192599,up
-0.169082418,0.108528279,0.969913483,-0.003112856,0.321097523,-0.003125173,182.7068673,67.48853911,21.84642836,up
-0.256955922,0.10634315,0.935308516,0.032928195,0.251153439,-0.044664007,182.9788044,67.40661782,22.51991234,up
-0.330019265,0.112170175,0.931653023,-0.119482681,0.296357483,-0.047412902,183.0446884,68.09897361,20.71515096,up
-0.40135476,0.101244502,0.901678324,-0.028158331,0.495804965,-0.043747712,184.8024376,70.56273213,21.76651515,up
-0.523291588,0.079878755,0.828813016,-0.052592941,0.48419857,-0.017175075,189.3740745,74.16028839,25.33349265,up
-0.595367551,0.067010745,0.773493767,0.0854626,0.549866557,0.029250685,198.714003,77.90636028,34.31900265,up
-0.681019545,0.102215677,0.695754528,0.089127794,0.298800945,0.025585495,207.3417887,79.48934541,43.70543793,up
0.16437833,0.071138225,1.008417487,0.028652135,0.766112864,-0.046802036,354.1998277,353.7232756,169.0613068,up
-0.055291187,0.057056256,0.984779,-0.147887915,0.736180484,0.038413662,357.5838144,333.4094247,166.9107944,up
-0.201171041,0.04418825,0.955047965,0.113562405,0.489696324,-0.029086944,1.814546688,317.4973003,164.6277081,up
-0.322120517,0.0587558,0.930190861,0.030790161,0.582853258,-0.048023768,9.680720809,302.0712054,158.5854632,up
-0.453683913,0.066282369,0.866098642,0.064998612,0.396844804,-0.03916622,24.99180902,289.3435167,145.6313947,up
-0.552911878,0.064097241,0.813947499,-0.332674652,0.751146674,-0.011982719,85.93446217,280.9785772,83.24920062,up
-0.688424647,0.028892318,0.717930913,0.075994194,0.423112005,0.074760146,138.8112049,288.9300307,32.27305364,up
-0.717304409,0.057056256,0.665536106,0.035978366,-0.208852649,-0.068540469,147.5658545,293.083257,23.7129244,up
-0.692373991,0.05487112,0.699409962,0.003361307,-0.152950168,0.025882948,151.394681,296.3450958,19.96958117,up
-0.683981597,0.057784636,0.712325931,0.016363356,-0.096221879,0.017137317,155.4883685,301.433778,16.61006213,up
0.126799211,0.095417485,1.002325177,-0.195301458,0.461192667,0.02691116,156.5840811,14.09124972,349.5768718,up
-0.006170891,0.096145861,0.983804166,-0.123524785,0.395219207,-0.002104938,156.5262294,19.180848,349.571674,up
-0.143905178,0.061912108,0.953829467,-0.01051471,0.459054619,0.002476552,155.1544542,25.49994607,349.371669,up
-0.24066475,0.064340033,0.960896671,-0.001657166,0.543659449,0.009501502,155.2931207,30.71773077,350.8544655,up
-0.33939901,0.066525161,0.916543841,0.032551292,0.504869521,0.001865686,155.4660611,35.20186266,351.6663974,up
-0.456645936,0.098573789,0.82223314,0.105855107,0.545186639,0.00461458,155.5684047,41.8623592,353.6373761,up
-0.579323292,0.084734611,0.787140787,0.006284084,0.519224823,-0.00241037,156.2077377,47.94251505,354.1514008,up
-0.685215712,0.116783224,0.679426789,0.105855107,0.495401084,-0.00943532,154.275204,54.43230125,353.1409191,up
-0.729646206,0.099544957,0.622889102,0.058498304,0.053602003,0.024232578,155.6356821,54.96051052,355.1170384,up
-0.749639869,0.120182328,0.631174803,0.018455844,-0.128326759,0.011245145,157.3413989,53.64423061,356.7274416,up
0.072248884,0.000728378,1.005980611,0.086261883,0.601046324,-0.090158485,333.0063377,37.21472624,183.4023171,up
-0.095525391,0.005341437,0.968451262,0.106725872,0.607765853,-0.092907377,333.7207823,37.540014,183.5508328,up
-0.211291328,0.059726976,0.965770602,0.083818436,0.493839532,-0.104208387,334.4407867,39.07463798,184.2816903,up
-0.358158529,0.051957611,0.896317005,0.103060678,0.461769074,-0.1454418,335.8654668,39.10222511,184.419346,up
-0.451709241,0.069681473,0.877308667,0.04960997,0.483454794,-0.11978545,336.8672626,39.68443727,184.1639379,up
-0.539582729,0.050743647,0.837829709,-0.03682746,0.560118377,-0.11398223,338.0185644,39.60218813,182.5727633,up
-0.635354936,0.043459874,0.745956063,-0.019723233,0.291337669,-0.040067535,338.6661159,40.81921856,182.6927151,up
-0.702494264,0.029620694,0.683325946,0.039530698,0.199097022,-0.011051437,340.2996324,43.42444395,183.7052907,up
-0.692127168,0.040060773,0.665292382,-0.020366888,-0.097543709,0.002622415,339.956284,50.30121501,182.2730819,up
-0.65460813,0.038361229,0.703796506,-0.082675144,-0.891363144,0.186798289,336.3554287,65.21201657,177.8248766,up
0.049943861,0.049529687,0.972106695,-0.111080378,0.721321106,-0.042581614,1.51653006,325.3473187,159.9706938,up
-0.100215279,0.03204862,0.975762188,-0.013341937,0.566161335,-0.084120452,9.039323357,310.3037451,155.2095056,up
-0.234493867,0.045402214,0.950417697,-0.124519415,0.349915087,-0.089923672,20.76547238,297.9867728,144.483076,up
-0.29003188,0.043217078,0.878283441,0.037665308,0.376487732,-0.076790065,43.38025946,289.1894686,124.0663701,up
-0.375683844,0.047101758,0.908989251,-0.131849796,0.291882873,-0.009289457,79.22766037,285.2546923,88.17770803,up
-0.441588968,0.024764843,0.816628158,0.089283429,0.298296958,-0.08748021,114.7117021,289.2769155,54.8128589,up
-0.503051043,0.027192768,0.843191147,0.098751836,0.285774231,-0.065183625,132.9756962,296.5836333,37.42104235,up
-0.563278973,0.047587346,0.830275178,-0.025559243,0.260117888,-0.10061381,141.7913257,304.4365853,29.59269275,up
-0.605734646,0.037147261,0.773493767,0.222757488,0.313568592,-0.174528509,146.5391542,313.3319641,26.99207944,up
-0.661272705,0.020880161,0.719880462,-0.088827536,0.084097922,-0.050761811,149.9621991,319.0807772,22.82914744,up
0.088007867,0.051229235,0.989165485,-0.026667487,-0.088144608,0.009695424,142.7008474,304.1843293,24.93476157,up
0.104494192,0.058998596,0.990627706,0.030996677,0.019474074,-0.013422355,145.9672078,306.5184713,22.12968997,up
0.051883429,0.059726976,0.97040087,0.060012776,0.258322388,-0.068400227,149.1957426,311.2770129,19.69922179,up
0.003879135,0.045159418,0.98063612,-0.010542162,0.33712399,-0.077563211,152.2098641,317.0620738,17.01674867,up
-0.036531676,0.065311208,0.999157071,-0.080486231,0.457159013,-0.042438455,154.7567596,323.3330208,14.83358969,up
-0.137240618,0.047101758,0.990140319,-0.031311579,0.651108742,-0.097721763,156.7144148,331.0689579,12.74854979,up
-0.257449567,0.03204862,0.907770753,-0.007793266,0.533211768,-0.088253349,158.6356651,341.2487248,11.45354763,up
-0.403576285,0.03034907,0.888031304,-0.031617012,0.363391191,-0.145674691,159.8427507,348.2700423,9.514197382,up
-0.481576353,0.014567555,0.85293895,0.012976151,0.364002049,-0.086726189,160.3355899,355.0798092,9.161939767,up
-0.547234595,0.01044008,0.806392908,-0.196550623,0.269928813,-0.035108071,161.0726356,0.42553063,6.955848856,up
0.135284826,0.045887794,0.983804166,0.020611968,0.257100642,-0.071149126,152.7933671,45.79384682,6.951515528,up
0.040246025,0.053899955,0.977955461,0.001980577,0.396988779,-0.120018341,153.151993,48.23177356,6.512476091,up
-0.039000034,0.058513008,0.983804166,0.008394662,0.340178311,-0.114520557,153.164383,50.38279821,5.511357335,up
-0.130082384,0.050743647,0.975762188,0.033440139,0.483731657,-0.135595411,152.8495523,52.90273503,4.946323532,up
-0.270778716,0.050986439,0.921174109,0.049017202,0.324295819,-0.117880315,152.0578377,56.06071397,3.959277954,up
-0.323601544,0.033748168,0.935308516,0.000453413,0.641945779,-0.054044891,152.2569514,60.06638428,2.300884545,up
-0.435418069,0.034719341,0.870972574,0.071619213,0.572307169,-0.039078694,153.9337765,64.71873348,2.933599759,up
-0.556120694,0.024036465,0.806636512,-0.073766716,0.540542126,-0.072981723,153.6236722,69.66717821,1.040628412,up
-0.650165081,0.025736013,0.724510729,0.09238863,0.244272485,0.00123841,154.9343172,71.82848229,2.890118348,up
-0.674848616,0.025736013,0.709888935,-0.028352717,-0.102629796,-0.009826907,157.058711,68.78738155,3.799183443,up
0.111525126,0.057056256,0.981854618,0.005970951,-0.026708215,0.002411665,154.1080556,62.24465455,4.732178319,up
0.102797069,0.066767953,0.987947047,0.038957715,0.189106539,-0.053063687,155.173128,59.59450017,5.455332708,up
-0.00394937,0.054142743,0.967720211,-0.036789574,0.496982634,-0.135225058,155.6714176,62.11568692,4.486443907,up
-0.09379755,0.061669316,0.998182297,-0.013882127,0.39557901,-0.097962275,155.5404556,64.77687888,4.209269281,up
-0.186607748,0.047830135,0.959921837,-0.047785148,0.467661083,-0.061615799,156.6130958,66.1667814,4.201163554,up
-0.272012889,0.046616174,0.997207463,0.079885684,0.316471934,-0.03595946,157.5806331,66.38519719,4.631661413,up
-0.372228146,0.052685987,0.897291839,0.035597958,0.50645107,-0.001140138,159.8398137,69.49094567,5.716107623,up
-0.439367473,0.070652634,0.876577556,-0.079855576,0.247444183,-0.0176335,161.6077809,69.64125082,6.625671108,up
-0.512430787,0.077693626,0.842216313,0.141888499,0.455443799,-0.067724444,162.3862995,72.68408643,8.606122024,up
-0.56920296,0.081092723,0.780317307,-0.057864424,0.437423259,-0.150802121,159.9107931,74.4464938,5.044275702,up
0.119283393,0.052928779,0.970888257,0.004336089,-0.046006963,0.007785714,162.0596799,63.87512999,7.138869751,up
0.136254609,0.051957611,0.996476471,-0.008489698,0.071925014,-0.031683404,162.406353,59.97235306,7.011963983,up
0.088492759,0.057056256,0.989409208,-0.021012437,0.600323439,-0.124840364,162.7785163,60.344332,6.494250158,up
-0.014810139,0.03107745,0.998669684,0.088943303,0.647665501,-0.176763907,161.3656643,62.61524695,5.349972771,up
-0.12613301,0.039575189,0.956997514,-0.040865555,0.398737907,-0.082690656,161.2205365,63.16334914,4.529482637,up
-0.200430557,0.039575189,0.956510127,0.008614529,0.383160859,-0.039013788,161.5370884,63.9762646,4.091094202,up
-0.29447493,0.03010628,0.933115244,0.019915532,0.297945142,-0.043289844,161.8757565,65.48134459,4.033192127,up
-0.352728158,0.035690509,0.924829543,0.08314009,0.319936305,-0.078109168,160.8287022,66.65737339,3.442374574,up
-0.442082644,0.040303569,0.864149034,0.038546924,0.289393038,-0.021909563,160.8853791,67.4058665,3.779499691,up
-0.49120295,0.038118433,0.85635072,-0.011849459,0.288476735,0.005884807,162.223099,67.83264404,4.411317803,up
